acc,accuracy,age,average_response_time,avg_rt,background,bidi,block,canvas_backend,clock_backend,color_backend,compensation,consent,coordinates,correct,correct_Instructions,correct_new_sketchpad,correct_new_touch_response_4,count_Age,count_Break,count_Consent,count_Experimental_sequence,count_ISI,count_Instructions,count_Prac_block,count_Sex,count_Test_pad,count_block_1,count_block_2,count_block_3,count_block_4,count_block_5,count_experiment,count_feedback,count_incongruent_block,count_logger,count_new_reset_feedback,count_new_sketchpad,count_new_sketchpad_1,count_new_sketchpad_3,count_new_touch_response_4,cursor_x,cursor_y,datetime,description,device_dpi,device_is_tablet,device_resolution_height,device_resolution_width,device_screen_diag,disable_garbage_collection,experiment_file,experiment_path,font_bold,font_family,font_italic,font_size,font_underline,foreground,form_clicks,form_response,form_var,freq,fullscreen,height,key,keyboard_backend,live_row,live_row_Prac_block,loc,logfile,mouse_backend,opensesame_codename,opensesame_version,repeat_cycle,response,response_Break,response_Instructions,response_feedback,response_new_sketchpad,response_new_sketchpad_1,response_new_sketchpad_3,response_new_touch_response_4,response_time,response_time_Break,response_time_Instructions,response_time_feedback,response_time_new_sketchpad,response_time_new_sketchpad_1,response_time_new_sketchpad_3,response_time_new_touch_response_4,round_decimals,sampler_backend,sex,sound_buf_size,sound_channels,sound_freq,sound_sample_size,start,subject_nr,subject_parity,synth_backend,time_Age,time_Break,time_Consent,time_Experimental_sequence,time_ISI,time_Instructions,time_Prac_block,time_Sex,time_Test_pad,time_block_1,time_block_2,time_block_3,time_block_4,time_block_5,time_experiment,time_feedback,time_incongruent_block,time_logger,time_new_reset_feedback,time_new_sketchpad,time_new_sketchpad_1,time_new_sketchpad_3,time_new_touch_response_4,title,total_correct,total_response_time,total_responses,tp,uniform_coordinates,width,z
100,100,20,802,802,#000000,no,NA,droid,legacy,legacy,0,I confirm that my participation has been explained and consent to taking part in the experiment,relative,1,undefined,undefined,1,0,1,0,0,0,0,0,0,0,0,0,0,0,0,0,NA,0,0,0,0,0,NA,0,753,129,04/09/2018 10:25,A template containing a practice and an experimental phase,96,no,800,1280,15.72330189,yes,Exp_10_working.osexp,C:\Users\russe\Dropbox,no,mono,no,32,no,#ffffff,no,I confirm that my participation has been explained and consent to taking part in the experiment,NA,NA,yes,800,NA,droid,0,0,4,C:/Users/russe/Dropbox/Exp_10/New folder/subject-5.csv,droid,Jazzy James,3.1.7,0,4,NA,1,NA,1,NA,NA,4,802,NA,738,NA,399,NA,NA,802,2,legacy,Male,1024,2,48000,-16,experiment,5,odd,droid,27786,NA,NA,32335,33139,31176,32314,NA,32336,NA,NA,NA,NA,NA,2377,NA,NA,33139,NA,31915,NA,NA,32336,Runtime for Android template,1,802,1,NA,no,1280,4.510572069
100,100,20,653,653,#000000,no,NA,droid,legacy,legacy,0,I confirm that my participation has been explained and consent to taking part in the experiment,relative,1,undefined,undefined,1,0,1,0,1,1,0,0,0,1,0,0,0,0,0,0,NA,0,1,0,0,0,NA,1,236,541,04/09/2018 10:25,A template containing a practice and an experimental phase,96,no,800,1280,15.72330189,yes,Exp_10_working.osexp,C:\Users\russe\Dropbox,no,mono,no,32,no,#ffffff,no,I confirm that my participation has been explained and consent to taking part in the experiment,NA,NA,yes,800,NA,droid,1,1,14,C:/Users/russe/Dropbox/Exp_10/New folder/subject-5.csv,droid,Jazzy James,3.1.7,0,14,NA,1,NA,1,NA,NA,14,504,NA,738,NA,399,NA,NA,504,2,legacy,Male,1024,2,48000,-16,experiment,5,odd,droid,27786,NA,NA,33208,33715,31176,32314,NA,33209,NA,NA,NA,NA,NA,2377,NA,NA,33715,NA,31915,NA,NA,33209,Runtime for Android template,2,1306,2,NA,no,1280,0.833332437
100,100,20,575,575,#000000,no,NA,droid,legacy,legacy,0,I confirm that my participation has been explained and consent to taking part in the experiment,relative,1,undefined,undefined,1,0,1,0,2,2,0,0,0,2,0,0,0,0,0,0,NA,0,2,0,0,0,NA,2,639,676,04/09/2018 10:25,A template containing a practice and an experimental phase,96,no,800,1280,15.72330189,yes,Exp_10_working.osexp,C:\Users\russe\Dropbox,no,mono,no,32,no,#ffffff,no,I confirm that my participation has been explained and consent to taking part in the experiment,NA,NA,yes,800,NA,droid,2,2,22,C:/Users/russe/Dropbox/Exp_10/New folder/subject-5.csv,droid,Jazzy James,3.1.7,0,22,NA,1,NA,1,NA,NA,22,419,NA,738,NA,399,NA,NA,419,2,legacy,Male,1024,2,48000,-16,experiment,5,odd,droid,27786,NA,NA,33782,34205,31176,32314,NA,33783,NA,NA,NA,NA,NA,2377,NA,NA,34205,NA,31915,NA,NA,33783,Runtime for Android template,3,1725,3,NA,no,1280,-0.21554464
75,75,20,533,533,#000000,no,NA,droid,legacy,legacy,0,I confirm that my participation has been explained and consent to taking part in the experiment,relative,0,undefined,undefined,0,0,1,0,3,3,0,0,0,3,0,0,0,0,0,0,NA,0,3,0,0,0,NA,3,657,384,04/09/2018 10:25,A template containing a practice and an experimental phase,96,no,800,1280,15.72330189,yes,Exp_10_working.osexp,C:\Users\russe\Dropbox,no,mono,no,32,no,#ffffff,no,I confirm that my participation has been explained and consent to taking part in the experiment,NA,NA,yes,800,NA,droid,3,3,9,C:/Users/russe/Dropbox/Exp_10/New folder/subject-5.csv,droid,Jazzy James,3.1.7,0,10,NA,1,NA,1,NA,NA,10,407,NA,738,NA,399,NA,NA,407,2,legacy,Male,1024,2,48000,-16,experiment,5,odd,droid,27786,NA,NA,34258,34667,31176,32314,NA,34259,NA,NA,NA,NA,NA,2377,NA,NA,34667,NA,31915,NA,NA,34259,Runtime for Android template,3,2132,4,NA,no,1280,-0.363621404
80,80,20,505.8,505.8,#000000,no,NA,droid,legacy,legacy,0,I confirm that my participation has been explained and consent to taking part in the experiment,relative,1,undefined,undefined,1,0,1,0,4,4,0,0,0,4,0,0,0,0,0,0,NA,0,4,0,0,0,NA,4,464,750,04/09/2018 10:25,A template containing a practice and an experimental phase,96,no,800,1280,15.72330189,yes,Exp_10_working.osexp,C:\Users\russe\Dropbox,no,mono,no,32,no,#ffffff,no,I confirm that my participation has been explained and consent to taking part in the experiment,NA,NA,yes,800,NA,droid,4,4,21,C:/Users/russe/Dropbox/Exp_10/New folder/subject-5.csv,droid,Jazzy James,3.1.7,0,21,NA,1,NA,1,NA,NA,21,397,NA,738,NA,399,NA,NA,397,2,legacy,Male,1024,2,48000,-16,experiment,5,odd,droid,27786,NA,NA,34723,35124,31176,32314,NA,34725,NA,NA,NA,NA,NA,2377,NA,NA,35124,NA,31915,NA,NA,34725,Runtime for Android template,4,2529,5,NA,no,1280,-0.487018707
83.33333333,83.33333333,20,486,486,#000000,no,NA,droid,legacy,legacy,0,I confirm that my participation has been explained and consent to taking part in the experiment,relative,1,undefined,undefined,1,0,1,0,5,5,0,0,0,5,0,0,0,0,0,0,NA,0,5,0,0,0,NA,5,992,349,04/09/2018 10:25,A template containing a practice and an experimental phase,96,no,800,1280,15.72330189,yes,Exp_10_working.osexp,C:\Users\russe\Dropbox,no,mono,no,32,no,#ffffff,no,I confirm that my participation has been explained and consent to taking part in the experiment,NA,NA,yes,800,NA,droid,5,5,11,C:/Users/russe/Dropbox/Exp_10/New folder/subject-5.csv,droid,Jazzy James,3.1.7,0,11,NA,1,NA,1,NA,NA,11,387,NA,738,NA,399,NA,NA,387,2,legacy,Male,1024,2,48000,-16,experiment,5,odd,droid,27786,NA,NA,35173,35563,31176,32314,NA,35175,NA,NA,NA,NA,NA,2377,NA,NA,35563,NA,31915,NA,NA,35175,Runtime for Android template,5,2916,6,NA,no,1280,-0.61041601
85.71428571,85.71428571,20,463.4285714,463.4285714,#000000,no,NA,droid,legacy,legacy,0,I confirm that my participation has been explained and consent to taking part in the experiment,relative,1,undefined,undefined,1,0,1,0,6,6,0,0,0,6,0,0,0,0,0,0,NA,0,6,0,0,0,NA,6,750,466,04/09/2018 10:25,A template containing a practice and an experimental phase,96,no,800,1280,15.72330189,yes,Exp_10_working.osexp,C:\Users\russe\Dropbox,no,mono,no,32,no,#ffffff,no,I confirm that my participation has been explained and consent to taking part in the experiment,NA,NA,yes,800,NA,droid,6,6,16,C:/Users/russe/Dropbox/Exp_10/New folder/subject-5.csv,droid,Jazzy James,3.1.7,0,16,NA,1,NA,1,NA,NA,16,328,NA,738,NA,399,NA,NA,328,2,legacy,Male,1024,2,48000,-16,experiment,5,odd,droid,27786,NA,NA,35616,35947,31176,32314,NA,35617,NA,NA,NA,NA,NA,2377,NA,NA,35947,NA,31915,NA,NA,35618,Runtime for Android template,6,3244,7,NA,no,1280,-1.338460098
87.5,87.5,20,451.625,451.625,#000000,no,NA,droid,legacy,legacy,0,I confirm that my participation has been explained and consent to taking part in the experiment,relative,1,undefined,undefined,1,0,1,0,7,7,0,0,0,7,0,0,0,0,0,0,NA,0,7,0,0,0,NA,7,582,544,04/09/2018 10:25,A template containing a practice and an experimental phase,96,no,800,1280,15.72330189,yes,Exp_10_working.osexp,C:\Users\russe\Dropbox,no,mono,no,32,no,#ffffff,no,I confirm that my participation has been explained and consent to taking part in the experiment,NA,NA,yes,800,NA,droid,7,7,15,C:/Users/russe/Dropbox/Exp_10/New folder/subject-5.csv,droid,Jazzy James,3.1.7,0,15,NA,1,NA,1,NA,NA,15,369,NA,738,NA,399,NA,NA,369,2,legacy,Male,1024,2,48000,-16,experiment,5,odd,droid,27786,NA,NA,36007,36379,31176,32314,NA,36009,NA,NA,NA,NA,NA,2377,NA,NA,36379,NA,31915,NA,NA,36009,Runtime for Android template,7,3613,8,NA,no,1280,-0.832531155
88.88888889,88.88888889,20,464.6666667,464.6666667,#000000,no,NA,droid,legacy,legacy,0,I confirm that my participation has been explained and consent to taking part in the experiment,relative,1,undefined,undefined,1,0,1,0,8,8,0,0,0,8,0,0,0,0,0,0,NA,0,8,0,0,0,NA,8,248,92,04/09/2018 10:25,A template containing a practice and an experimental phase,96,no,800,1280,15.72330189,yes,Exp_10_working.osexp,C:\Users\russe\Dropbox,no,mono,no,32,no,#ffffff,no,I confirm that my participation has been explained and consent to taking part in the experiment,NA,NA,yes,800,NA,droid,8,8,2,C:/Users/russe/Dropbox/Exp_10/New folder/subject-5.csv,droid,Jazzy James,3.1.7,0,2,NA,1,NA,1,NA,NA,2,569,NA,738,NA,399,NA,NA,569,2,legacy,Male,1024,2,48000,-16,experiment,5,odd,droid,27786,NA,NA,36431,37003,31176,32314,NA,36433,NA,NA,NA,NA,NA,2377,NA,NA,37003,NA,31915,NA,NA,36433,Runtime for Android template,8,4182,9,NA,no,1280,1.635414907
90,90,20,460.1,460.1,#000000,no,NA,droid,legacy,legacy,0,I confirm that my participation has been explained and consent to taking part in the experiment,relative,1,undefined,undefined,1,0,1,0,9,9,0,0,0,9,0,0,0,0,0,0,NA,0,9,0,0,0,NA,9,321,300,04/09/2018 10:25,A template containing a practice and an experimental phase,96,no,800,1280,15.72330189,yes,Exp_10_working.osexp,C:\Users\russe\Dropbox,no,mono,no,32,no,#ffffff,no,I confirm that my participation has been explained and consent to taking part in the experiment,NA,NA,yes,800,NA,droid,9,9,8,C:/Users/russe/Dropbox/Exp_10/New folder/subject-5.csv,droid,Jazzy James,3.1.7,0,8,NA,1,NA,1,NA,NA,8,419,NA,738,NA,399,NA,NA,419,2,legacy,Male,1024,2,48000,-16,experiment,5,odd,droid,27786,NA,NA,37062,37483,31176,32314,NA,37063,NA,NA,NA,NA,NA,2377,NA,NA,37483,NA,31915,NA,NA,37063,Runtime for Android template,9,4601,10,NA,no,1280,-0.21554464
90.90909091,90.90909091,20,456.0909091,456.0909091,#000000,no,NA,droid,legacy,legacy,0,I confirm that my participation has been explained and consent to taking part in the experiment,relative,1,undefined,undefined,1,0,1,0,10,10,0,0,0,10,0,0,0,0,0,0,NA,0,10,0,0,0,NA,10,972,494,04/09/2018 10:25,A template containing a practice and an experimental phase,96,no,800,1280,15.72330189,yes,Exp_10_working.osexp,C:\Users\russe\Dropbox,no,mono,no,32,no,#ffffff,no,I confirm that my participation has been explained and consent to taking part in the experiment,NA,NA,yes,800,NA,droid,10,10,17,C:/Users/russe/Dropbox/Exp_10/New folder/subject-5.csv,droid,Jazzy James,3.1.7,0,17,NA,1,NA,1,NA,NA,17,416,NA,738,NA,399,NA,NA,416,2,legacy,Male,1024,2,48000,-16,experiment,5,odd,droid,27786,NA,NA,37535,37955,31176,32314,NA,37537,NA,NA,NA,NA,NA,2377,NA,NA,37955,NA,31915,NA,NA,37537,Runtime for Android template,10,5017,11,NA,no,1280,-0.252563831
91.66666667,91.66666667,20,451.8333333,451.8333333,#000000,no,NA,droid,legacy,legacy,0,I confirm that my participation has been explained and consent to taking part in the experiment,relative,1,undefined,undefined,1,0,1,0,11,11,0,0,0,11,0,0,0,0,0,0,NA,0,11,0,0,0,NA,11,806,314,04/09/2018 10:25,A template containing a practice and an experimental phase,96,no,800,1280,15.72330189,yes,Exp_10_working.osexp,C:\Users\russe\Dropbox,no,mono,no,32,no,#ffffff,no,I confirm that my participation has been explained and consent to taking part in the experiment,NA,NA,yes,800,NA,droid,11,11,10,C:/Users/russe/Dropbox/Exp_10/New folder/subject-5.csv,droid,Jazzy James,3.1.7,0,10,NA,1,NA,1,NA,NA,10,405,NA,738,NA,399,NA,NA,405,2,legacy,Male,1024,2,48000,-16,experiment,5,odd,droid,27786,NA,NA,38011,38420,31176,32314,NA,38013,NA,NA,NA,NA,NA,2377,NA,NA,38420,NA,31915,NA,NA,38013,Runtime for Android template,11,5422,12,NA,no,1280,-0.388300864
92.30769231,92.30769231,20,450.6153846,450.6153846,#000000,no,NA,droid,legacy,legacy,0,I confirm that my participation has been explained and consent to taking part in the experiment,relative,1,undefined,undefined,1,0,1,0,12,12,0,0,0,12,0,0,0,0,0,0,NA,0,12,0,0,0,NA,12,966,136,04/09/2018 10:25,A template containing a practice and an experimental phase,96,no,800,1280,15.72330189,yes,Exp_10_working.osexp,C:\Users\russe\Dropbox,no,mono,no,32,no,#ffffff,no,I confirm that my participation has been explained and consent to taking part in the experiment,NA,NA,yes,800,NA,droid,12,12,5,C:/Users/russe/Dropbox/Exp_10/New folder/subject-5.csv,droid,Jazzy James,3.1.7,0,5,NA,1,NA,1,NA,NA,5,436,NA,738,NA,399,NA,NA,436,2,legacy,Male,1024,2,48000,-16,experiment,5,odd,droid,27786,NA,NA,38501,38939,31176,32314,NA,38502,NA,NA,NA,NA,NA,2377,NA,NA,38939,NA,31915,NA,NA,38502,Runtime for Android template,12,5858,13,NA,no,1280,-0.005769225
92.85714286,92.85714286,20,450.0714286,450.0714286,#000000,no,NA,droid,legacy,legacy,0,I confirm that my participation has been explained and consent to taking part in the experiment,relative,1,undefined,undefined,1,0,1,0,13,13,0,0,0,13,0,0,0,0,0,0,NA,0,13,0,0,0,NA,13,607,118,04/09/2018 10:25,A template containing a practice and an experimental phase,96,no,800,1280,15.72330189,yes,Exp_10_working.osexp,C:\Users\russe\Dropbox,no,mono,no,32,no,#ffffff,no,I confirm that my participation has been explained and consent to taking part in the experiment,NA,NA,yes,800,NA,droid,13,13,3,C:/Users/russe/Dropbox/Exp_10/New folder/subject-5.csv,droid,Jazzy James,3.1.7,0,3,NA,1,NA,1,NA,NA,3,443,NA,738,NA,399,NA,NA,443,2,legacy,Male,1024,2,48000,-16,experiment,5,odd,droid,27786,NA,NA,39037,39483,31176,32314,NA,39038,NA,NA,NA,NA,NA,2377,NA,NA,39483,NA,31915,NA,NA,39039,Runtime for Android template,13,6301,14,NA,no,1280,0.080608888
93.33333333,93.33333333,20,450.7333333,450.7333333,#000000,no,NA,droid,legacy,legacy,0,I confirm that my participation has been explained and consent to taking part in the experiment,relative,1,undefined,undefined,1,0,1,0,14,14,0,0,0,14,0,0,0,0,0,0,NA,0,14,0,0,0,NA,14,299,739,04/09/2018 10:25,A template containing a practice and an experimental phase,96,no,800,1280,15.72330189,yes,Exp_10_working.osexp,C:\Users\russe\Dropbox,no,mono,no,32,no,#ffffff,no,I confirm that my participation has been explained and consent to taking part in the experiment,NA,NA,yes,800,NA,droid,14,14,20,C:/Users/russe/Dropbox/Exp_10/New folder/subject-5.csv,droid,Jazzy James,3.1.7,0,20,NA,1,NA,1,NA,NA,20,460,NA,738,NA,399,NA,NA,460,2,legacy,Male,1024,2,48000,-16,experiment,5,odd,droid,27786,NA,NA,39548,40011,31176,32314,NA,39550,NA,NA,NA,NA,NA,2377,NA,NA,40011,NA,31915,NA,NA,39550,Runtime for Android template,14,6761,15,NA,no,1280,0.290384303
93.75,93.75,20,474.875,474.875,#000000,no,NA,droid,legacy,legacy,0,I confirm that my participation has been explained and consent to taking part in the experiment,relative,1,undefined,undefined,1,0,1,0,15,15,0,0,0,15,0,0,0,0,0,0,NA,0,15,0,0,0,NA,15,898,692,04/09/2018 10:25,A template containing a practice and an experimental phase,96,no,800,1280,15.72330189,yes,Exp_10_working.osexp,C:\Users\russe\Dropbox,no,mono,no,32,no,#ffffff,no,I confirm that my participation has been explained and consent to taking part in the experiment,NA,NA,yes,800,NA,droid,15,15,23,C:/Users/russe/Dropbox/Exp_10/New folder/subject-5.csv,droid,Jazzy James,3.1.7,0,23,NA,1,NA,1,NA,NA,23,837,NA,738,NA,399,NA,NA,837,2,legacy,Male,1024,2,48000,-16,experiment,5,odd,droid,27786,NA,NA,40068,40912,31176,32314,NA,40069,NA,NA,NA,NA,NA,2377,NA,NA,40912,NA,31915,NA,NA,40069,Runtime for Android template,15,7598,16,NA,no,1280,4.94246263
100,100,20,585,585,#000000,no,1,droid,legacy,legacy,0,I confirm that my participation has been explained and consent to taking part in the experiment,relative,1,undefined,undefined,1,0,1,0,16,16,0,0,0,16,0,0,0,0,0,0,NA,0,16,0,0,0,NA,16,377,346,04/09/2018 10:25,A template containing a practice and an experimental phase,96,no,800,1280,15.72330189,yes,Exp_10_working.osexp,C:\Users\russe\Dropbox,no,mono,no,32,no,#ffffff,no,I confirm that my participation has been explained and consent to taking part in the experiment,NA,2,yes,800,oe,droid,0,15,8,C:/Users/russe/Dropbox/Exp_10/New folder/subject-5.csv,droid,Jazzy James,3.1.7,0,8,NA,1,NA,1,1,NA,8,585,NA,738,NA,399,1657,NA,585,2,legacy,Male,1024,2,48000,-16,experiment,5,odd,droid,27786,NA,NA,42640,43227,31176,32314,NA,42640,42619,NA,NA,NA,NA,2377,NA,NA,43227,NA,31915,40961,NA,42641,Runtime for Android template,1,585,1,0.125,no,1280,1.832850592
100,100,20,482.5,482.5,#000000,no,1,droid,legacy,legacy,0,I confirm that my participation has been explained and consent to taking part in the experiment,relative,1,undefined,undefined,1,0,1,0,17,17,0,0,0,17,0,0,0,0,0,0,NA,0,17,0,0,0,NA,17,358,314,04/09/2018 10:25,A template containing a practice and an experimental phase,96,no,800,1280,15.72330189,yes,Exp_10_working.osexp,C:\Users\russe\Dropbox,no,mono,no,32,no,#ffffff,no,I confirm that my participation has been explained and consent to taking part in the experiment,NA,2,yes,800,ee,droid,1,15,8,C:/Users/russe/Dropbox/Exp_10/New folder/subject-5.csv,droid,Jazzy James,3.1.7,0,8,NA,1,NA,1,1,NA,8,380,NA,738,NA,399,1657,NA,380,2,legacy,Male,1024,2,48000,-16,experiment,5,odd,droid,27786,NA,NA,43284,43667,31176,32314,NA,43286,42619,NA,NA,NA,NA,2377,NA,NA,43667,NA,31915,40961,NA,43286,Runtime for Android template,2,965,2,0.16667,no,1280,-0.696794122
66.66666667,66.66666667,20,453.3333333,453.3333333,#000000,no,1,droid,legacy,legacy,0,I confirm that my participation has been explained and consent to taking part in the experiment,relative,0,undefined,undefined,0,0,1,0,18,18,0,0,0,18,0,0,0,0,0,0,NA,0,18,0,0,0,NA,18,635,521,04/09/2018 10:25,A template containing a practice and an experimental phase,96,no,800,1280,15.72330189,yes,Exp_10_working.osexp,C:\Users\russe\Dropbox,no,mono,no,32,no,#ffffff,no,I confirm that my participation has been explained and consent to taking part in the experiment,NA,1,yes,800,ek,droid,2,15,16,C:/Users/russe/Dropbox/Exp_10/New folder/subject-5.csv,droid,Jazzy James,3.1.7,0,15,NA,1,NA,1,1,NA,15,395,NA,738,NA,399,1657,NA,395,2,legacy,Male,1024,2,48000,-16,experiment,5,odd,droid,27786,NA,NA,43717,44115,31176,32314,NA,43719,42619,NA,NA,NA,NA,2377,NA,NA,44115,NA,31915,40961,NA,43719,Runtime for Android template,2,1360,3,0.08333,no,1280,-0.511698167
75,75,20,435,435,#000000,no,1,droid,legacy,legacy,0,I confirm that my participation has been explained and consent to taking part in the experiment,relative,1,undefined,undefined,1,0,1,0,19,19,0,0,0,19,0,0,0,0,0,0,NA,0,19,0,0,0,NA,19,703,170,04/09/2018 10:25,A template containing a practice and an experimental phase,96,no,800,1280,15.72330189,yes,Exp_10_working.osexp,C:\Users\russe\Dropbox,no,mono,no,32,no,#ffffff,no,I confirm that my participation has been explained and consent to taking part in the experiment,NA,1,yes,800,kc,droid,3,15,4,C:/Users/russe/Dropbox/Exp_10/New folder/subject-5.csv,droid,Jazzy James,3.1.7,0,4,NA,1,NA,1,1,NA,4,380,NA,738,NA,399,1657,NA,380,2,legacy,Male,1024,2,48000,-16,experiment,5,odd,droid,27786,NA,NA,44205,44588,31176,32314,NA,44206,42619,NA,NA,NA,NA,2377,NA,NA,44588,NA,31915,40961,NA,44206,Runtime for Android template,3,1740,4,0.125,no,1280,-0.696794122
80,80,20,430.4,430.4,#000000,no,1,droid,legacy,legacy,0,I confirm that my participation has been explained and consent to taking part in the experiment,relative,1,undefined,undefined,1,0,1,0,20,20,0,0,0,20,0,0,0,0,0,0,NA,0,20,0,0,0,NA,20,1012,479,04/09/2018 10:25,A template containing a practice and an experimental phase,96,no,800,1280,15.72330189,yes,Exp_10_working.osexp,C:\Users\russe\Dropbox,no,mono,no,32,no,#ffffff,no,I confirm that my participation has been explained and consent to taking part in the experiment,NA,1,yes,800,cl,droid,4,15,17,C:/Users/russe/Dropbox/Exp_10/New folder/subject-5.csv,droid,Jazzy James,3.1.7,0,17,NA,1,NA,1,1,NA,17,412,NA,738,NA,399,1657,NA,412,2,legacy,Male,1024,2,48000,-16,experiment,5,odd,droid,27786,NA,NA,44636,45052,31176,32314,NA,44638,42619,NA,NA,NA,NA,2377,NA,NA,45052,NA,31915,40961,NA,44638,Runtime for Android template,4,2152,5,0.1,no,1280,-0.301922752
83.33333333,83.33333333,20,423.5,423.5,#000000,no,1,droid,legacy,legacy,0,I confirm that my participation has been explained and consent to taking part in the experiment,relative,1,undefined,undefined,1,0,1,0,21,21,0,0,0,21,0,0,0,0,0,0,NA,0,21,0,0,0,NA,21,234,719,04/09/2018 10:25,A template containing a practice and an experimental phase,96,no,800,1280,15.72330189,yes,Exp_10_working.osexp,C:\Users\russe\Dropbox,no,mono,no,32,no,#ffffff,no,I confirm that my participation has been explained and consent to taking part in the experiment,NA,1,yes,800,lm,droid,5,15,20,C:/Users/russe/Dropbox/Exp_10/New folder/subject-5.csv,droid,Jazzy James,3.1.7,0,20,NA,1,NA,1,1,NA,20,389,NA,738,NA,399,1657,NA,389,2,legacy,Male,1024,2,48000,-16,experiment,5,odd,droid,27786,NA,NA,45115,45508,31176,32314,NA,45116,42619,NA,NA,NA,NA,2377,NA,NA,45508,NA,31915,40961,NA,45116,Runtime for Android template,5,2541,6,0.25,no,1280,-0.585736549
85.71428571,85.71428571,20,417.1428571,417.1428571,#000000,no,1,droid,legacy,legacy,0,I confirm that my participation has been explained and consent to taking part in the experiment,relative,1,undefined,undefined,1,0,1,0,22,22,0,0,0,22,0,0,0,0,0,0,NA,0,22,0,0,0,NA,22,334,282,04/09/2018 10:25,A template containing a practice and an experimental phase,96,no,800,1280,15.72330189,yes,Exp_10_working.osexp,C:\Users\russe\Dropbox,no,mono,no,32,no,#ffffff,no,I confirm that my participation has been explained and consent to taking part in the experiment,NA,2,yes,800,me,droid,6,15,8,C:/Users/russe/Dropbox/Exp_10/New folder/subject-5.csv,droid,Jazzy James,3.1.7,0,8,NA,1,NA,1,1,NA,8,379,NA,738,NA,399,1657,NA,379,2,legacy,Male,1024,2,48000,-16,experiment,5,odd,droid,27786,NA,NA,45558,45939,31176,32314,NA,45559,42619,NA,NA,NA,NA,2377,NA,NA,45939,NA,31915,40961,NA,45559,Runtime for Android template,6,2920,7,0.22222,no,1280,-0.709133852
87.5,87.5,20,415.5,415.5,#000000,no,1,droid,legacy,legacy,0,I confirm that my participation has been explained and consent to taking part in the experiment,relative,1,undefined,undefined,1,0,1,0,23,23,0,0,0,23,0,0,0,0,0,0,NA,0,23,0,0,0,NA,23,308,67,04/09/2018 10:25,A template containing a practice and an experimental phase,96,no,800,1280,15.72330189,yes,Exp_10_working.osexp,C:\Users\russe\Dropbox,no,mono,no,32,no,#ffffff,no,I confirm that my participation has been explained and consent to taking part in the experiment,NA,1,yes,800,ea,droid,7,15,2,C:/Users/russe/Dropbox/Exp_10/New folder/subject-5.csv,droid,Jazzy James,3.1.7,0,2,NA,1,NA,1,1,NA,2,404,NA,738,NA,399,1657,NA,404,2,legacy,Male,1024,2,48000,-16,experiment,5,odd,droid,27786,NA,NA,46020,46428,31176,32314,NA,46021,42619,NA,NA,NA,NA,2377,NA,NA,46428,NA,31915,40961,NA,46022,Runtime for Android template,7,3324,8,0.08333,no,1280,-0.400640595
88.88888889,88.88888889,20,421.5555556,421.5555556,#000000,no,1,droid,legacy,legacy,0,I confirm that my participation has been explained and consent to taking part in the experiment,relative,1,undefined,undefined,1,0,1,0,24,24,0,0,0,24,0,0,0,0,0,0,NA,0,24,0,0,0,NA,24,656,632,04/09/2018 10:25,A template containing a practice and an experimental phase,96,no,800,1280,15.72330189,yes,Exp_10_working.osexp,C:\Users\russe\Dropbox,no,mono,no,32,no,#ffffff,no,I confirm that my participation has been explained and consent to taking part in the experiment,NA,2,yes,800,ao,droid,8,15,22,C:/Users/russe/Dropbox/Exp_10/New folder/subject-5.csv,droid,Jazzy James,3.1.7,0,22,NA,1,NA,1,1,NA,22,470,NA,738,NA,399,1657,NA,470,2,legacy,Male,1024,2,48000,-16,experiment,5,odd,droid,27786,NA,NA,46482,46956,31176,32314,NA,46483,42619,NA,NA,NA,NA,2377,NA,NA,46956,NA,31915,40961,NA,46483,Runtime for Android template,8,3794,9,0.33333,no,1280,0.413781606
90,90,20,412.2,412.2,#000000,no,1,droid,legacy,legacy,0,I confirm that my participation has been explained and consent to taking part in the experiment,relative,1,undefined,undefined,1,0,1,0,25,25,0,0,0,25,0,0,0,0,0,0,NA,0,25,0,0,0,NA,25,631,511,04/09/2018 10:25,A template containing a practice and an experimental phase,96,no,800,1280,15.72330189,yes,Exp_10_working.osexp,C:\Users\russe\Dropbox,no,mono,no,32,no,#ffffff,no,I confirm that my participation has been explained and consent to taking part in the experiment,NA,1,yes,800,oj,droid,9,15,15,C:/Users/russe/Dropbox/Exp_10/New folder/subject-5.csv,droid,Jazzy James,3.1.7,0,15,NA,1,NA,1,1,NA,15,328,NA,738,NA,399,1657,NA,328,2,legacy,Male,1024,2,48000,-16,experiment,5,odd,droid,27786,NA,NA,47056,47388,31176,32314,NA,47057,42619,NA,NA,NA,NA,2377,NA,NA,47388,NA,31915,40961,NA,47058,Runtime for Android template,9,4122,10,0.0625,no,1280,-1.338460098
90.90909091,90.90909091,20,410.8181818,410.8181818,#000000,no,1,droid,legacy,legacy,0,I confirm that my participation has been explained and consent to taking part in the experiment,relative,1,undefined,undefined,1,0,1,0,26,26,0,0,0,26,0,0,0,0,0,0,NA,0,26,0,0,0,NA,26,494,699,04/09/2018 10:25,A template containing a practice and an experimental phase,96,no,800,1280,15.72330189,yes,Exp_10_working.osexp,C:\Users\russe\Dropbox,no,mono,no,32,no,#ffffff,no,I confirm that my participation has been explained and consent to taking part in the experiment,NA,1,yes,800,jn,droid,10,15,21,C:/Users/russe/Dropbox/Exp_10/New folder/subject-5.csv,droid,Jazzy James,3.1.7,0,21,NA,1,NA,1,1,NA,21,397,NA,738,NA,399,1657,NA,397,2,legacy,Male,1024,2,48000,-16,experiment,5,odd,droid,27786,NA,NA,47442,47843,31176,32314,NA,47444,42619,NA,NA,NA,NA,2377,NA,NA,47843,NA,31915,40961,NA,47444,Runtime for Android template,10,4519,11,0.125,no,1280,-0.487018707
91.66666667,91.66666667,20,407,407,#000000,no,1,droid,legacy,legacy,0,I confirm that my participation has been explained and consent to taking part in the experiment,relative,1,undefined,undefined,1,0,1,0,27,27,0,0,0,27,0,0,0,0,0,0,NA,0,27,0,0,0,NA,27,1024,286,04/09/2018 10:25,A template containing a practice and an experimental phase,96,no,800,1280,15.72330189,yes,Exp_10_working.osexp,C:\Users\russe\Dropbox,no,mono,no,32,no,#ffffff,no,I confirm that my participation has been explained and consent to taking part in the experiment,NA,4,yes,800,nh,droid,11,15,11,C:/Users/russe/Dropbox/Exp_10/New folder/subject-5.csv,droid,Jazzy James,3.1.7,0,11,NA,1,NA,1,1,NA,11,365,NA,738,NA,399,1657,NA,365,2,legacy,Male,1024,2,48000,-16,experiment,5,odd,droid,27786,NA,NA,47908,48276,31176,32314,NA,47909,42619,NA,NA,NA,NA,2377,NA,NA,48276,NA,31915,40961,NA,47909,Runtime for Android template,11,4884,12,0.8,no,1280,-0.881890077
92.30769231,92.30769231,20,408.5384615,408.5384615,#000000,no,1,droid,legacy,legacy,0,I confirm that my participation has been explained and consent to taking part in the experiment,relative,1,undefined,undefined,1,0,1,0,28,28,0,0,0,28,0,0,0,0,0,0,NA,0,28,0,0,0,NA,28,371,490,04/09/2018 10:25,A template containing a practice and an experimental phase,96,no,800,1280,15.72330189,yes,Exp_10_working.osexp,C:\Users\russe\Dropbox,no,mono,no,32,no,#ffffff,no,I confirm that my participation has been explained and consent to taking part in the experiment,NA,1,yes,800,hi,droid,12,15,14,C:/Users/russe/Dropbox/Exp_10/New folder/subject-5.csv,droid,Jazzy James,3.1.7,0,14,NA,1,NA,1,1,NA,14,427,NA,738,NA,399,1657,NA,427,2,legacy,Male,1024,2,48000,-16,experiment,5,odd,droid,27786,NA,NA,48334,48764,31176,32314,NA,48335,42619,NA,NA,NA,NA,2377,NA,NA,48764,NA,31915,40961,NA,48335,Runtime for Android template,12,5311,13,0.07692,no,1280,-0.116826797
92.85714286,92.85714286,20,411.7142857,411.7142857,#000000,no,1,droid,legacy,legacy,0,I confirm that my participation has been explained and consent to taking part in the experiment,relative,1,undefined,undefined,1,0,1,0,29,29,0,0,0,29,0,0,0,0,0,0,NA,0,29,0,0,0,NA,29,724,182,04/09/2018 10:25,A template containing a practice and an experimental phase,96,no,800,1280,15.72330189,yes,Exp_10_working.osexp,C:\Users\russe\Dropbox,no,mono,no,32,no,#ffffff,no,I confirm that my participation has been explained and consent to taking part in the experiment,NA,1,yes,800,ic,droid,13,15,4,C:/Users/russe/Dropbox/Exp_10/New folder/subject-5.csv,droid,Jazzy James,3.1.7,0,4,NA,1,NA,1,1,NA,4,453,NA,738,NA,399,1657,NA,453,2,legacy,Male,1024,2,48000,-16,experiment,5,odd,droid,27786,NA,NA,48843,49299,31176,32314,NA,48845,42619,NA,NA,NA,NA,2377,NA,NA,49300,NA,31915,40961,NA,48845,Runtime for Android template,13,5764,14,1,no,1280,0.204006191
93.33333333,93.33333333,20,406.1333333,406.1333333,#000000,no,1,droid,legacy,legacy,0,I confirm that my participation has been explained and consent to taking part in the experiment,relative,1,undefined,undefined,1,0,1,0,30,30,0,0,0,30,0,0,0,0,0,0,NA,0,30,0,0,0,NA,30,730,256,04/09/2018 10:25,A template containing a practice and an experimental phase,96,no,800,1280,15.72330189,yes,Exp_10_working.osexp,C:\Users\russe\Dropbox,no,mono,no,32,no,#ffffff,no,I confirm that my participation has been explained and consent to taking part in the experiment,NA,1,yes,800,cg,droid,14,15,10,C:/Users/russe/Dropbox/Exp_10/New folder/subject-5.csv,droid,Jazzy James,3.1.7,0,10,NA,1,NA,1,1,NA,10,328,NA,738,NA,399,1657,NA,328,2,legacy,Male,1024,2,48000,-16,experiment,5,odd,droid,27786,NA,NA,49369,49700,31176,32314,NA,49370,42619,NA,NA,NA,NA,2377,NA,NA,49700,NA,31915,40961,NA,49370,Runtime for Android template,14,6092,15,0.1,no,1280,-1.338460098
93.75,93.75,20,403.625,403.625,#000000,no,1,droid,legacy,legacy,0,I confirm that my participation has been explained and consent to taking part in the experiment,relative,1,undefined,undefined,1,0,1,0,31,31,0,0,0,31,0,0,0,0,0,0,NA,0,31,0,0,0,NA,31,880,497,04/09/2018 10:25,A template containing a practice and an experimental phase,96,no,800,1280,15.72330189,yes,Exp_10_working.osexp,C:\Users\russe\Dropbox,no,mono,no,32,no,#ffffff,no,I confirm that my participation has been explained and consent to taking part in the experiment,NA,1,yes,800,gl,droid,15,15,17,C:/Users/russe/Dropbox/Exp_10/New folder/subject-5.csv,droid,Jazzy James,3.1.7,0,17,NA,1,NA,1,1,NA,17,366,NA,738,NA,399,1657,NA,366,2,legacy,Male,1024,2,48000,-16,experiment,5,odd,droid,27786,NA,NA,49762,50131,31176,32314,NA,49763,42619,NA,NA,NA,NA,2377,NA,NA,50131,NA,31915,40961,NA,49763,Runtime for Android template,15,6458,16,0.2,no,1280,-0.869550346
94.11764706,94.11764706,20,415,415,#000000,no,1,droid,legacy,legacy,0,I confirm that my participation has been explained and consent to taking part in the experiment,relative,1,undefined,undefined,1,0,1,0,32,32,0,0,0,32,0,0,0,0,0,0,NA,0,32,0,0,0,NA,32,829,74,04/09/2018 10:25,A template containing a practice and an experimental phase,96,no,800,1280,15.72330189,yes,Exp_10_working.osexp,C:\Users\russe\Dropbox,no,mono,no,32,no,#ffffff,no,I confirm that my participation has been explained and consent to taking part in the experiment,NA,1,yes,800,lc,droid,16,15,4,C:/Users/russe/Dropbox/Exp_10/New folder/subject-5.csv,droid,Jazzy James,3.1.7,0,4,NA,1,NA,1,1,NA,4,597,NA,738,NA,399,1657,NA,597,2,legacy,Male,1024,2,48000,-16,experiment,5,odd,droid,27786,NA,NA,50203,50803,31176,32314,NA,50205,42619,NA,NA,NA,NA,2377,NA,NA,50804,NA,31915,40961,NA,50205,Runtime for Android template,16,7055,17,0.25,no,1280,1.980927356
94.44444444,94.44444444,20,414.9444444,414.9444444,#000000,no,1,droid,legacy,legacy,0,I confirm that my participation has been explained and consent to taking part in the experiment,relative,1,undefined,undefined,1,0,1,0,33,33,0,0,0,33,0,0,0,0,0,0,NA,0,33,0,0,0,NA,33,790,709,04/09/2018 10:25,A template containing a practice and an experimental phase,96,no,800,1280,15.72330189,yes,Exp_10_working.osexp,C:\Users\russe\Dropbox,no,mono,no,32,no,#ffffff,no,I confirm that my participation has been explained and consent to taking part in the experiment,NA,3,yes,800,co,droid,17,15,22,C:/Users/russe/Dropbox/Exp_10/New folder/subject-5.csv,droid,Jazzy James,3.1.7,0,22,NA,1,NA,1,1,NA,22,414,NA,738,NA,399,1657,NA,414,2,legacy,Male,1024,2,48000,-16,experiment,5,odd,droid,27786,NA,NA,50874,51292,31176,32314,NA,50875,42619,NA,NA,NA,NA,2377,NA,NA,51292,NA,31915,40961,NA,50876,Runtime for Android template,17,7469,18,0.3,no,1280,-0.277243291
94.73684211,94.73684211,20,412.1052632,412.1052632,#000000,no,1,droid,legacy,legacy,0,I confirm that my participation has been explained and consent to taking part in the experiment,relative,1,undefined,undefined,1,0,1,0,34,34,0,0,0,34,0,0,0,0,0,0,NA,0,34,0,0,0,NA,34,1054,234,04/09/2018 10:25,A template containing a practice and an experimental phase,96,no,800,1280,15.72330189,yes,Exp_10_working.osexp,C:\Users\russe\Dropbox,no,mono,no,32,no,#ffffff,no,I confirm that my participation has been explained and consent to taking part in the experiment,NA,1,yes,800,oh,droid,18,15,11,C:/Users/russe/Dropbox/Exp_10/New folder/subject-5.csv,droid,Jazzy James,3.1.7,0,11,NA,1,NA,1,1,NA,11,361,NA,738,NA,399,1657,NA,361,2,legacy,Male,1024,2,48000,-16,experiment,5,odd,droid,27786,NA,NA,51360,51724,31176,32314,NA,51361,42619,NA,NA,NA,NA,2377,NA,NA,51724,NA,31915,40961,NA,51361,Runtime for Android template,18,7830,19,0.0625,no,1280,-0.931248998
95,95,20,411.5,411.5,#000000,no,1,droid,legacy,legacy,0,I confirm that my participation has been explained and consent to taking part in the experiment,relative,1,undefined,undefined,1,0,1,0,35,35,0,0,0,35,0,0,0,0,0,0,NA,0,35,0,0,0,NA,35,512,512,04/09/2018 10:25,A template containing a practice and an experimental phase,96,no,800,1280,15.72330189,yes,Exp_10_working.osexp,C:\Users\russe\Dropbox,no,mono,no,32,no,#ffffff,no,I confirm that my participation has been explained and consent to taking part in the experiment,NA,2,yes,800,hj,droid,19,15,15,C:/Users/russe/Dropbox/Exp_10/New folder/subject-5.csv,droid,Jazzy James,3.1.7,0,15,NA,1,NA,1,1,NA,15,400,NA,738,NA,399,1657,NA,400,2,legacy,Male,1024,2,48000,-16,experiment,5,odd,droid,27786,NA,NA,51784,52188,31176,32314,NA,51786,42619,NA,NA,NA,NA,2377,NA,NA,52188,NA,31915,40961,NA,51786,Runtime for Android template,19,8230,20,0.15385,no,1280,-0.449999516
95.23809524,95.23809524,20,410.7142857,410.7142857,#000000,no,1,droid,legacy,legacy,0,I confirm that my participation has been explained and consent to taking part in the experiment,relative,1,undefined,undefined,1,0,1,0,36,36,0,0,0,36,0,0,0,0,0,0,NA,0,36,0,0,0,NA,36,699,684,04/09/2018 10:25,A template containing a practice and an experimental phase,96,no,800,1280,15.72330189,yes,Exp_10_working.osexp,C:\Users\russe\Dropbox,no,mono,no,32,no,#ffffff,no,I confirm that my participation has been explained and consent to taking part in the experiment,NA,2,yes,800,jo,droid,20,15,22,C:/Users/russe/Dropbox/Exp_10/New folder/subject-5.csv,droid,Jazzy James,3.1.7,0,22,NA,1,NA,1,1,NA,22,395,NA,738,NA,399,1657,NA,395,2,legacy,Male,1024,2,48000,-16,experiment,5,odd,droid,27786,NA,NA,52253,52652,31176,32314,NA,52255,42619,NA,NA,NA,NA,2377,NA,NA,52652,NA,31915,40961,NA,52255,Runtime for Android template,20,8625,21,0.25,no,1280,-0.511698167
95.45454545,95.45454545,20,411.7727273,411.7727273,#000000,no,1,droid,legacy,legacy,0,I confirm that my participation has been explained and consent to taking part in the experiment,relative,1,undefined,undefined,1,0,1,0,37,37,0,0,0,37,0,0,0,0,0,0,NA,0,37,0,0,0,NA,37,409,382,04/09/2018 10:25,A template containing a practice and an experimental phase,96,no,800,1280,15.72330189,yes,Exp_10_working.osexp,C:\Users\russe\Dropbox,no,mono,no,32,no,#ffffff,no,I confirm that my participation has been explained and consent to taking part in the experiment,NA,2,yes,800,oe,droid,21,15,8,C:/Users/russe/Dropbox/Exp_10/New folder/subject-5.csv,droid,Jazzy James,3.1.7,0,8,NA,1,NA,1,1,NA,8,434,NA,738,NA,399,1657,NA,434,2,legacy,Male,1024,2,48000,-16,experiment,5,odd,droid,27786,NA,NA,52703,53139,31176,32314,NA,52704,42619,NA,NA,NA,NA,2377,NA,NA,53139,NA,31915,40961,NA,52704,Runtime for Android template,21,9059,22,0.125,no,1280,-0.030448685
95.65217391,95.65217391,20,408.173913,408.173913,#000000,no,1,droid,legacy,legacy,0,I confirm that my participation has been explained and consent to taking part in the experiment,relative,1,undefined,undefined,1,0,1,0,38,38,0,0,0,38,0,0,0,0,0,0,NA,0,38,0,0,0,NA,38,491,352,04/09/2018 10:25,A template containing a practice and an experimental phase,96,no,800,1280,15.72330189,yes,Exp_10_working.osexp,C:\Users\russe\Dropbox,no,mono,no,32,no,#ffffff,no,I confirm that my participation has been explained and consent to taking part in the experiment,NA,1,yes,800,ef,droid,22,15,9,C:/Users/russe/Dropbox/Exp_10/New folder/subject-5.csv,droid,Jazzy James,3.1.7,0,9,NA,1,NA,1,1,NA,9,329,NA,738,NA,399,1657,NA,329,2,legacy,Male,1024,2,48000,-16,experiment,5,odd,droid,27786,NA,NA,53216,53548,31176,32314,NA,53217,42619,NA,NA,NA,NA,2377,NA,NA,53548,NA,31915,40961,NA,53217,Runtime for Android template,22,9388,23,0.08333,no,1280,-1.326120368
95.83333333,95.83333333,20,408.375,408.375,#000000,no,1,droid,legacy,legacy,0,I confirm that my participation has been explained and consent to taking part in the experiment,relative,1,undefined,undefined,1,0,1,0,39,39,0,0,0,39,0,0,0,0,0,0,NA,0,39,0,0,0,NA,39,733,722,04/09/2018 10:25,A template containing a practice and an experimental phase,96,no,800,1280,15.72330189,yes,Exp_10_working.osexp,C:\Users\russe\Dropbox,no,mono,no,32,no,#ffffff,no,I confirm that my participation has been explained and consent to taking part in the experiment,NA,1,yes,800,fo,droid,23,15,22,C:/Users/russe/Dropbox/Exp_10/New folder/subject-5.csv,droid,Jazzy James,3.1.7,0,22,NA,1,NA,1,1,NA,22,413,NA,738,NA,399,1657,NA,413,2,legacy,Male,1024,2,48000,-16,experiment,5,odd,droid,27786,NA,NA,53603,54020,31176,32314,NA,53605,42619,NA,NA,NA,NA,2377,NA,NA,54020,NA,31915,40961,NA,53605,Runtime for Android template,23,9801,24,0.33333,no,1280,-0.289583022
96,96,20,410.68,410.68,#000000,no,1,droid,legacy,legacy,0,I confirm that my participation has been explained and consent to taking part in the experiment,relative,1,undefined,undefined,1,0,1,0,40,40,0,0,0,40,0,0,0,0,0,0,NA,0,40,0,0,0,NA,40,353,675,04/09/2018 10:25,A template containing a practice and an experimental phase,96,no,800,1280,15.72330189,yes,Exp_10_working.osexp,C:\Users\russe\Dropbox,no,mono,no,32,no,#ffffff,no,I confirm that my participation has been explained and consent to taking part in the experiment,NA,1,yes,800,om,droid,24,15,20,C:/Users/russe/Dropbox/Exp_10/New folder/subject-5.csv,droid,Jazzy James,3.1.7,0,20,NA,1,NA,1,1,NA,20,466,NA,738,NA,399,1657,NA,466,2,legacy,Male,1024,2,48000,-16,experiment,5,odd,droid,27786,NA,NA,54071,54539,31176,32314,NA,54072,42619,NA,NA,NA,NA,2377,NA,NA,54539,NA,31915,40961,NA,54072,Runtime for Android template,24,10267,25,0.0625,no,1280,0.364422685
96.15384615,96.15384615,20,410.5,410.5,#000000,no,1,droid,legacy,legacy,0,I confirm that my participation has been explained and consent to taking part in the experiment,relative,1,undefined,undefined,1,0,1,0,41,41,0,0,0,41,0,0,0,0,0,0,NA,0,41,0,0,0,NA,41,538,73,04/09/2018 10:25,A template containing a practice and an experimental phase,96,no,800,1280,15.72330189,yes,Exp_10_working.osexp,C:\Users\russe\Dropbox,no,mono,no,32,no,#ffffff,no,I confirm that my participation has been explained and consent to taking part in the experiment,NA,1,yes,800,mb,droid,25,15,3,C:/Users/russe/Dropbox/Exp_10/New folder/subject-5.csv,droid,Jazzy James,3.1.7,0,3,NA,1,NA,1,1,NA,3,406,NA,738,NA,399,1657,NA,406,2,legacy,Male,1024,2,48000,-16,experiment,5,odd,droid,27786,NA,NA,54595,55004,31176,32314,NA,54596,42619,NA,NA,NA,NA,2377,NA,NA,55004,NA,31915,40961,NA,54596,Runtime for Android template,25,10673,26,0.11111,no,1280,-0.375961134
92.59259259,92.59259259,20,409.6666667,409.6666667,#000000,no,1,droid,legacy,legacy,0,I confirm that my participation has been explained and consent to taking part in the experiment,relative,0,undefined,undefined,0,0,1,0,42,42,0,0,0,42,0,0,0,0,0,0,NA,0,42,0,0,0,NA,42,1110,304,04/09/2018 10:25,A template containing a practice and an experimental phase,96,no,800,1280,15.72330189,yes,Exp_10_working.osexp,C:\Users\russe\Dropbox,no,mono,no,32,no,#ffffff,no,I confirm that my participation has been explained and consent to taking part in the experiment,NA,1,yes,800,bh,droid,26,15,11,C:/Users/russe/Dropbox/Exp_10/New folder/subject-5.csv,droid,Jazzy James,3.1.7,0,12,NA,1,NA,1,1,NA,12,388,NA,738,NA,399,1657,NA,388,2,legacy,Male,1024,2,48000,-16,experiment,5,odd,droid,27786,NA,NA,55069,55459,31176,32314,NA,55070,42619,NA,NA,NA,NA,2377,NA,NA,55460,NA,31915,40961,NA,55070,Runtime for Android template,25,11061,27,0.125,no,1280,-0.598076279
92.85714286,92.85714286,20,408.25,408.25,#000000,no,1,droid,legacy,legacy,0,I confirm that my participation has been explained and consent to taking part in the experiment,relative,1,undefined,undefined,1,0,1,0,43,43,0,0,0,43,0,0,0,0,0,0,NA,0,43,0,0,0,NA,43,929,327,04/09/2018 10:25,A template containing a practice and an experimental phase,96,no,800,1280,15.72330189,yes,Exp_10_working.osexp,C:\Users\russe\Dropbox,no,mono,no,32,no,#ffffff,no,I confirm that my participation has been explained and consent to taking part in the experiment,NA,1,yes,800,hh,droid,27,15,11,C:/Users/russe/Dropbox/Exp_10/New folder/subject-5.csv,droid,Jazzy James,3.1.7,0,11,NA,1,NA,1,1,NA,11,370,NA,738,NA,399,1657,NA,370,2,legacy,Male,1024,2,48000,-16,experiment,5,odd,droid,27786,NA,NA,55510,55884,31176,32314,NA,55512,42619,NA,NA,NA,NA,2377,NA,NA,55884,NA,31915,40961,NA,55512,Runtime for Android template,26,11431,28,0.07692,no,1280,-0.820191425
93.10344828,93.10344828,20,409.5862069,409.5862069,#000000,no,1,droid,legacy,legacy,0,I confirm that my participation has been explained and consent to taking part in the experiment,relative,1,undefined,undefined,1,0,1,0,44,44,0,0,0,44,0,0,0,0,0,0,NA,0,44,0,0,0,NA,44,662,110,04/09/2018 10:25,A template containing a practice and an experimental phase,96,no,800,1280,15.72330189,yes,Exp_10_working.osexp,C:\Users\russe\Dropbox,no,mono,no,32,no,#ffffff,no,I confirm that my participation has been explained and consent to taking part in the experiment,NA,1,yes,800,hc,droid,28,15,4,C:/Users/russe/Dropbox/Exp_10/New folder/subject-5.csv,droid,Jazzy James,3.1.7,0,4,NA,1,NA,1,1,NA,4,447,NA,738,NA,399,1657,NA,447,2,legacy,Male,1024,2,48000,-16,experiment,5,odd,droid,27786,NA,NA,55945,56396,31176,32314,NA,55947,42619,NA,NA,NA,NA,2377,NA,NA,56396,NA,31915,40961,NA,55947,Runtime for Android template,27,11878,29,0.07692,no,1280,0.129967809
93.33333333,93.33333333,20,410.9666667,410.9666667,#000000,no,1,droid,legacy,legacy,0,I confirm that my participation has been explained and consent to taking part in the experiment,relative,1,undefined,undefined,1,0,1,0,45,45,0,0,0,45,0,0,0,0,0,0,NA,0,45,0,0,0,NA,45,369,384,04/09/2018 10:25,A template containing a practice and an experimental phase,96,no,800,1280,15.72330189,yes,Exp_10_working.osexp,C:\Users\russe\Dropbox,no,mono,no,32,no,#ffffff,no,I confirm that my participation has been explained and consent to taking part in the experiment,NA,1,yes,800,ce,droid,29,15,8,C:/Users/russe/Dropbox/Exp_10/New folder/subject-5.csv,droid,Jazzy James,3.1.7,0,8,NA,1,NA,1,1,NA,8,451,NA,738,NA,399,1657,NA,451,2,legacy,Male,1024,2,48000,-16,experiment,5,odd,droid,27786,NA,NA,56445,56899,31176,32314,NA,56446,42619,NA,NA,NA,NA,2377,NA,NA,56899,NA,31915,40961,NA,56447,Runtime for Android template,28,12329,30,0.1,no,1280,0.17932673
93.5483871,93.5483871,20,411.0645161,411.0645161,#000000,no,1,droid,legacy,legacy,0,I confirm that my participation has been explained and consent to taking part in the experiment,relative,1,undefined,undefined,1,0,1,0,46,46,0,0,0,46,0,0,0,0,0,0,NA,0,46,0,0,0,NA,46,697,109,04/09/2018 10:25,A template containing a practice and an experimental phase,96,no,800,1280,15.72330189,yes,Exp_10_working.osexp,C:\Users\russe\Dropbox,no,mono,no,32,no,#ffffff,no,I confirm that my participation has been explained and consent to taking part in the experiment,NA,1,yes,800,ec,droid,30,15,4,C:/Users/russe/Dropbox/Exp_10/New folder/subject-5.csv,droid,Jazzy James,3.1.7,0,4,NA,1,NA,1,1,NA,4,414,NA,738,NA,399,1657,NA,414,2,legacy,Male,1024,2,48000,-16,experiment,5,odd,droid,27786,NA,NA,56954,57372,31176,32314,NA,56956,42619,NA,NA,NA,NA,2377,NA,NA,57372,NA,31915,40961,NA,56956,Runtime for Android template,29,12743,31,0.08333,no,1280,-0.277243291
93.75,93.75,20,411.28125,411.28125,#000000,no,1,droid,legacy,legacy,0,I confirm that my participation has been explained and consent to taking part in the experiment,relative,1,undefined,undefined,1,0,1,0,47,47,0,0,0,47,0,0,0,0,0,0,NA,0,47,0,0,0,NA,47,748,78,04/09/2018 10:25,A template containing a practice and an experimental phase,96,no,800,1280,15.72330189,yes,Exp_10_working.osexp,C:\Users\russe\Dropbox,no,mono,no,32,no,#ffffff,no,I confirm that my participation has been explained and consent to taking part in the experiment,NA,1,yes,800,cc,droid,31,15,4,C:/Users/russe/Dropbox/Exp_10/New folder/subject-5.csv,droid,Jazzy James,3.1.7,0,4,NA,1,NA,1,1,NA,4,418,NA,738,NA,399,1657,NA,418,2,legacy,Male,1024,2,48000,-16,experiment,5,odd,droid,27786,NA,NA,57430,57852,31176,32314,NA,57432,42619,NA,NA,NA,NA,2377,NA,NA,57852,NA,31915,40961,NA,57432,Runtime for Android template,30,13161,32,0.1,no,1280,-0.22788437
93.93939394,93.93939394,20,409.5151515,409.5151515,#000000,no,1,droid,legacy,legacy,0,I confirm that my participation has been explained and consent to taking part in the experiment,relative,1,undefined,undefined,1,0,1,0,48,48,0,0,0,48,0,0,0,0,0,0,NA,0,48,0,0,0,NA,48,984,326,04/09/2018 10:25,A template containing a practice and an experimental phase,96,no,800,1280,15.72330189,yes,Exp_10_working.osexp,C:\Users\russe\Dropbox,no,mono,no,32,no,#ffffff,no,I confirm that my participation has been explained and consent to taking part in the experiment,NA,1,yes,800,ch,droid,32,15,11,C:/Users/russe/Dropbox/Exp_10/New folder/subject-5.csv,droid,Jazzy James,3.1.7,0,11,NA,1,NA,1,1,NA,11,353,NA,738,NA,399,1657,NA,353,2,legacy,Male,1024,2,48000,-16,experiment,5,odd,droid,27786,NA,NA,57904,58260,31176,32314,NA,57905,42619,NA,NA,NA,NA,2377,NA,NA,58260,NA,31915,40961,NA,57905,Runtime for Android template,31,13514,33,0.1,no,1280,-1.02996684
94.11764706,94.11764706,20,409.8823529,409.8823529,#000000,no,1,droid,legacy,legacy,0,I confirm that my participation has been explained and consent to taking part in the experiment,relative,1,undefined,undefined,1,0,1,0,49,49,0,0,0,49,0,0,0,0,0,0,NA,0,49,0,0,0,NA,49,325,300,04/09/2018 10:25,A template containing a practice and an experimental phase,96,no,800,1280,15.72330189,yes,Exp_10_working.osexp,C:\Users\russe\Dropbox,no,mono,no,32,no,#ffffff,no,I confirm that my participation has been explained and consent to taking part in the experiment,NA,1,yes,800,he,droid,33,15,8,C:/Users/russe/Dropbox/Exp_10/New folder/subject-5.csv,droid,Jazzy James,3.1.7,0,8,NA,1,NA,1,1,NA,8,422,NA,738,NA,399,1657,NA,422,2,legacy,Male,1024,2,48000,-16,experiment,5,odd,droid,27786,NA,NA,58330,58755,31176,32314,NA,58332,42619,NA,NA,NA,NA,2377,NA,NA,58755,NA,31915,40961,NA,58332,Runtime for Android template,32,13936,34,0.07692,no,1280,-0.178525449
94.28571429,94.28571429,20,411.0571429,411.0571429,#000000,no,1,droid,legacy,legacy,0,I confirm that my participation has been explained and consent to taking part in the experiment,relative,1,undefined,undefined,1,0,1,0,50,50,0,0,0,50,0,0,0,0,0,0,NA,0,50,0,0,0,NA,50,887,751,04/09/2018 10:25,A template containing a practice and an experimental phase,96,no,800,1280,15.72330189,yes,Exp_10_working.osexp,C:\Users\russe\Dropbox,no,mono,no,32,no,#ffffff,no,I confirm that my participation has been explained and consent to taking part in the experiment,NA,1,yes,800,ep,droid,34,15,23,C:/Users/russe/Dropbox/Exp_10/New folder/subject-5.csv,droid,Jazzy James,3.1.7,0,23,NA,1,NA,1,1,NA,23,451,NA,738,NA,399,1657,NA,451,2,legacy,Male,1024,2,48000,-16,experiment,5,odd,droid,27786,NA,NA,58830,59283,31176,32314,NA,58831,42619,NA,NA,NA,NA,2377,NA,NA,59284,NA,31915,40961,NA,58831,Runtime for Android template,33,14387,35,0.08333,no,1280,0.17932673
94.44444444,94.44444444,20,410.9166667,410.9166667,#000000,no,1,droid,legacy,legacy,0,I confirm that my participation has been explained and consent to taking part in the experiment,relative,1,undefined,undefined,1,0,1,0,51,51,0,0,0,51,0,0,0,0,0,0,NA,0,51,0,0,0,NA,51,546,358,04/09/2018 10:25,A template containing a practice and an experimental phase,96,no,800,1280,15.72330189,yes,Exp_10_working.osexp,C:\Users\russe\Dropbox,no,mono,no,32,no,#ffffff,no,I confirm that my participation has been explained and consent to taking part in the experiment,NA,1,yes,800,pf,droid,35,15,9,C:/Users/russe/Dropbox/Exp_10/New folder/subject-5.csv,droid,Jazzy James,3.1.7,0,9,NA,1,NA,1,1,NA,9,406,NA,738,NA,399,1657,NA,406,2,legacy,Male,1024,2,48000,-16,experiment,5,odd,droid,27786,NA,NA,59338,59748,31176,32314,NA,59339,42619,NA,NA,NA,NA,2377,NA,NA,59748,NA,31915,40961,NA,59339,Runtime for Android template,34,14793,36,0.2,no,1280,-0.375961134
94.59459459,94.59459459,20,410.2972973,410.2972973,#000000,no,1,droid,legacy,legacy,0,I confirm that my participation has been explained and consent to taking part in the experiment,relative,1,undefined,undefined,1,0,1,0,52,52,0,0,0,52,0,0,0,0,0,0,NA,0,52,0,0,0,NA,52,409,287,04/09/2018 10:25,A template containing a practice and an experimental phase,96,no,800,1280,15.72330189,yes,Exp_10_working.osexp,C:\Users\russe\Dropbox,no,mono,no,32,no,#ffffff,no,I confirm that my participation has been explained and consent to taking part in the experiment,NA,1,yes,800,fe,droid,36,15,8,C:/Users/russe/Dropbox/Exp_10/New folder/subject-5.csv,droid,Jazzy James,3.1.7,0,8,NA,1,NA,1,1,NA,8,388,NA,738,NA,399,1657,NA,388,2,legacy,Male,1024,2,48000,-16,experiment,5,odd,droid,27786,NA,NA,59813,60204,31176,32314,NA,59814,42619,NA,NA,NA,NA,2377,NA,NA,60204,NA,31915,40961,NA,59814,Runtime for Android template,35,15181,37,0.33333,no,1280,-0.598076279
94.73684211,94.73684211,20,410.3157895,410.3157895,#000000,no,1,droid,legacy,legacy,0,I confirm that my participation has been explained and consent to taking part in the experiment,relative,1,undefined,undefined,1,0,1,0,53,53,0,0,0,53,0,0,0,0,0,0,NA,0,53,0,0,0,NA,53,870,348,04/09/2018 10:25,A template containing a practice and an experimental phase,96,no,800,1280,15.72330189,yes,Exp_10_working.osexp,C:\Users\russe\Dropbox,no,mono,no,32,no,#ffffff,no,I confirm that my participation has been explained and consent to taking part in the experiment,NA,1,yes,800,eh,droid,37,15,11,C:/Users/russe/Dropbox/Exp_10/New folder/subject-5.csv,droid,Jazzy James,3.1.7,0,11,NA,1,NA,1,1,NA,11,411,NA,738,NA,399,1657,NA,411,2,legacy,Male,1024,2,48000,-16,experiment,5,odd,droid,27786,NA,NA,60261,60676,31176,32314,NA,60263,42619,NA,NA,NA,NA,2377,NA,NA,60676,NA,31915,40961,NA,60263,Runtime for Android template,36,15592,38,0.08333,no,1280,-0.314262482
94.87179487,94.87179487,20,411.2051282,411.2051282,#000000,no,1,droid,legacy,legacy,0,I confirm that my participation has been explained and consent to taking part in the experiment,relative,1,undefined,undefined,1,0,1,0,54,54,0,0,0,54,0,0,0,0,0,0,NA,0,54,0,0,0,NA,54,378,679,04/09/2018 10:25,A template containing a practice and an experimental phase,96,no,800,1280,15.72330189,yes,Exp_10_working.osexp,C:\Users\russe\Dropbox,no,mono,no,32,no,#ffffff,no,I confirm that my participation has been explained and consent to taking part in the experiment,NA,1,yes,800,hm,droid,38,15,20,C:/Users/russe/Dropbox/Exp_10/New folder/subject-5.csv,droid,Jazzy James,3.1.7,0,20,NA,1,NA,1,1,NA,20,445,NA,738,NA,399,1657,NA,445,2,legacy,Male,1024,2,48000,-16,experiment,5,odd,droid,27786,NA,NA,60738,61188,31176,32314,NA,60740,42619,NA,NA,NA,NA,2377,NA,NA,61188,NA,31915,40961,NA,60740,Runtime for Android template,37,16037,39,0.07692,no,1280,0.105288348
95,95,20,410,410,#000000,no,1,droid,legacy,legacy,0,I confirm that my participation has been explained and consent to taking part in the experiment,relative,1,undefined,undefined,1,0,1,0,55,55,0,0,0,55,0,0,0,0,0,0,NA,0,55,0,0,0,NA,55,435,285,04/09/2018 10:25,A template containing a practice and an experimental phase,96,no,800,1280,15.72330189,yes,Exp_10_working.osexp,C:\Users\russe\Dropbox,no,mono,no,32,no,#ffffff,no,I confirm that my participation has been explained and consent to taking part in the experiment,NA,1,yes,800,mf,droid,39,15,9,C:/Users/russe/Dropbox/Exp_10/New folder/subject-5.csv,droid,Jazzy James,3.1.7,0,9,NA,1,NA,1,1,NA,9,363,NA,738,NA,399,1657,NA,363,2,legacy,Male,1024,2,48000,-16,experiment,5,odd,droid,27786,NA,NA,61253,61620,31176,32314,NA,61255,42619,NA,NA,NA,NA,2377,NA,NA,61620,NA,31915,40961,NA,61255,Runtime for Android template,38,16400,40,0.11111,no,1280,-0.906569537
95.12195122,95.12195122,20,410.3902439,410.3902439,#000000,no,1,droid,legacy,legacy,0,I confirm that my participation has been explained and consent to taking part in the experiment,relative,1,undefined,undefined,1,0,1,0,56,56,0,0,0,56,0,0,0,0,0,0,NA,0,56,0,0,0,NA,56,405,622,04/09/2018 10:25,A template containing a practice and an experimental phase,96,no,800,1280,15.72330189,yes,Exp_10_working.osexp,C:\Users\russe\Dropbox,no,mono,no,32,no,#ffffff,no,I confirm that my participation has been explained and consent to taking part in the experiment,NA,1,yes,800,fm,droid,40,15,20,C:/Users/russe/Dropbox/Exp_10/New folder/subject-5.csv,droid,Jazzy James,3.1.7,0,20,NA,1,NA,1,1,NA,20,426,NA,738,NA,399,1657,NA,426,2,legacy,Male,1024,2,48000,-16,experiment,5,odd,droid,27786,NA,NA,61671,62100,31176,32314,NA,61672,42619,NA,NA,NA,NA,2377,NA,NA,62100,NA,31915,40961,NA,61672,Runtime for Android template,39,16826,41,0.33333,no,1280,-0.129166528
95.23809524,95.23809524,20,410.9047619,410.9047619,#000000,no,1,droid,legacy,legacy,0,I confirm that my participation has been explained and consent to taking part in the experiment,relative,1,undefined,undefined,1,0,1,0,57,57,0,0,0,57,0,0,0,0,0,0,NA,0,57,0,0,0,NA,57,570,703,04/09/2018 10:25,A template containing a practice and an experimental phase,96,no,800,1280,15.72330189,yes,Exp_10_working.osexp,C:\Users\russe\Dropbox,no,mono,no,32,no,#ffffff,no,I confirm that my participation has been explained and consent to taking part in the experiment,NA,1,yes,800,mn,droid,41,15,21,C:/Users/russe/Dropbox/Exp_10/New folder/subject-5.csv,droid,Jazzy James,3.1.7,0,21,NA,1,NA,1,1,NA,21,432,NA,738,NA,399,1657,NA,432,2,legacy,Male,1024,2,48000,-16,experiment,5,odd,droid,27786,NA,NA,62168,62604,31176,32314,NA,62169,42619,NA,NA,NA,NA,2377,NA,NA,62604,NA,31915,40961,NA,62170,Runtime for Android template,40,17258,42,0.11111,no,1280,-0.055128146
95.34883721,95.34883721,20,410.1395349,410.1395349,#000000,no,1,droid,legacy,legacy,0,I confirm that my participation has been explained and consent to taking part in the experiment,relative,1,undefined,undefined,1,0,1,0,58,58,0,0,0,58,0,0,0,0,0,0,NA,0,58,0,0,0,NA,58,974,231,04/09/2018 10:25,A template containing a practice and an experimental phase,96,no,800,1280,15.72330189,yes,Exp_10_working.osexp,C:\Users\russe\Dropbox,no,mono,no,32,no,#ffffff,no,I confirm that my participation has been explained and consent to taking part in the experiment,NA,4,yes,800,nh,droid,42,15,11,C:/Users/russe/Dropbox/Exp_10/New folder/subject-5.csv,droid,Jazzy James,3.1.7,0,11,NA,1,NA,1,1,NA,11,378,NA,738,NA,399,1657,NA,378,2,legacy,Male,1024,2,48000,-16,experiment,5,odd,droid,27786,NA,NA,62662,63045,31176,32314,NA,62664,42619,NA,NA,NA,NA,2377,NA,NA,63045,NA,31915,40961,NA,62664,Runtime for Android template,41,17636,43,0.8,no,1280,-0.721473583
93.18181818,93.18181818,20,409.5227273,409.5227273,#000000,no,1,droid,legacy,legacy,0,I confirm that my participation has been explained and consent to taking part in the experiment,relative,0,undefined,undefined,0,0,1,0,59,59,0,0,0,59,0,0,0,0,0,0,NA,0,59,0,0,0,NA,59,959,620,04/09/2018 10:25,A template containing a practice and an experimental phase,96,no,800,1280,15.72330189,yes,Exp_10_working.osexp,C:\Users\russe\Dropbox,no,mono,no,32,no,#ffffff,no,I confirm that my participation has been explained and consent to taking part in the experiment,NA,1,yes,800,hl,droid,43,15,17,C:/Users/russe/Dropbox/Exp_10/New folder/subject-5.csv,droid,Jazzy James,3.1.7,0,23,NA,1,NA,1,1,NA,23,383,NA,738,NA,399,1657,NA,383,2,legacy,Male,1024,2,48000,-16,experiment,5,odd,droid,27786,NA,NA,63113,63499,31176,32314,NA,63115,42619,NA,NA,NA,NA,2377,NA,NA,63499,NA,31915,40961,NA,63115,Runtime for Android template,41,18019,44,0.07692,no,1280,-0.659774931
93.33333333,93.33333333,20,408.2,408.2,#000000,no,1,droid,legacy,legacy,0,I confirm that my participation has been explained and consent to taking part in the experiment,relative,1,undefined,undefined,1,0,1,0,60,60,0,0,0,60,0,0,0,0,0,0,NA,0,60,0,0,0,NA,60,713,485,04/09/2018 10:25,A template containing a practice and an experimental phase,96,no,800,1280,15.72330189,yes,Exp_10_working.osexp,C:\Users\russe\Dropbox,no,mono,no,32,no,#ffffff,no,I confirm that my participation has been explained and consent to taking part in the experiment,NA,1,yes,800,lk,droid,44,15,16,C:/Users/russe/Dropbox/Exp_10/New folder/subject-5.csv,droid,Jazzy James,3.1.7,0,16,NA,1,NA,1,1,NA,16,350,NA,738,NA,399,1657,NA,350,2,legacy,Male,1024,2,48000,-16,experiment,5,odd,droid,27786,NA,NA,63570,63924,31176,32314,NA,63572,42619,NA,NA,NA,NA,2377,NA,NA,63924,NA,31915,40961,NA,63572,Runtime for Android template,42,18369,45,0.25,no,1280,-1.066986031
93.47826087,93.47826087,20,405.9782609,405.9782609,#000000,no,1,droid,legacy,legacy,0,I confirm that my participation has been explained and consent to taking part in the experiment,relative,1,undefined,undefined,1,0,1,0,61,61,0,0,0,61,0,0,0,0,0,0,NA,0,61,0,0,0,NA,61,734,510,04/09/2018 10:25,A template containing a practice and an experimental phase,96,no,800,1280,15.72330189,yes,Exp_10_working.osexp,C:\Users\russe\Dropbox,no,mono,no,32,no,#ffffff,no,I confirm that my participation has been explained and consent to taking part in the experiment,NA,1,yes,800,kk,droid,45,15,16,C:/Users/russe/Dropbox/Exp_10/New folder/subject-5.csv,droid,Jazzy James,3.1.7,0,16,NA,1,NA,1,1,NA,16,306,NA,738,NA,399,1657,NA,306,2,legacy,Male,1024,2,48000,-16,experiment,5,odd,droid,27786,NA,NA,64015,64323,31176,32314,NA,64016,42619,NA,NA,NA,NA,2377,NA,NA,64323,NA,31915,40961,NA,64016,Runtime for Android template,43,18675,46,0.125,no,1280,-1.609934165
93.61702128,93.61702128,20,405.3617021,405.3617021,#000000,no,1,droid,legacy,legacy,0,I confirm that my participation has been explained and consent to taking part in the experiment,relative,1,undefined,undefined,1,0,1,0,62,62,0,0,0,62,0,0,0,0,0,0,NA,0,62,0,0,0,NA,62,962,318,04/09/2018 10:25,A template containing a practice and an experimental phase,96,no,800,1280,15.72330189,yes,Exp_10_working.osexp,C:\Users\russe\Dropbox,no,mono,no,32,no,#ffffff,no,I confirm that my participation has been explained and consent to taking part in the experiment,NA,2,yes,800,kh,droid,46,15,11,C:/Users/russe/Dropbox/Exp_10/New folder/subject-5.csv,droid,Jazzy James,3.1.7,0,11,NA,1,NA,1,1,NA,11,377,NA,738,NA,399,1657,NA,377,2,legacy,Male,1024,2,48000,-16,experiment,5,odd,droid,27786,NA,NA,64376,64755,31176,32314,NA,64377,42619,NA,NA,NA,NA,2377,NA,NA,64756,NA,31915,40961,NA,64377,Runtime for Android template,44,19052,47,0.25,no,1280,-0.733813313
93.75,93.75,20,406.4791667,406.4791667,#000000,no,1,droid,legacy,legacy,0,I confirm that my participation has been explained and consent to taking part in the experiment,relative,1,undefined,undefined,1,0,1,0,63,63,0,0,0,63,0,0,0,0,0,0,NA,0,63,0,0,0,NA,63,723,132,04/09/2018 10:25,A template containing a practice and an experimental phase,96,no,800,1280,15.72330189,yes,Exp_10_working.osexp,C:\Users\russe\Dropbox,no,mono,no,32,no,#ffffff,no,I confirm that my participation has been explained and consent to taking part in the experiment,NA,1,yes,800,hd,droid,47,15,4,C:/Users/russe/Dropbox/Exp_10/New folder/subject-5.csv,droid,Jazzy James,3.1.7,0,4,NA,1,NA,1,1,NA,4,459,NA,738,NA,399,1657,NA,459,2,legacy,Male,1024,2,48000,-16,experiment,5,odd,droid,27786,NA,NA,64821,65284,31176,32314,NA,64823,42619,NA,NA,NA,NA,2377,NA,NA,65284,NA,31915,40961,NA,64823,Runtime for Android template,45,19511,48,0.07692,no,1280,0.278044573
93.87755102,93.87755102,20,406.4693878,406.4693878,#000000,no,1,droid,legacy,legacy,0,I confirm that my participation has been explained and consent to taking part in the experiment,relative,1,undefined,undefined,1,0,1,0,64,64,0,0,0,64,0,0,0,0,0,0,NA,0,64,0,0,0,NA,64,733,624,04/09/2018 10:25,A template containing a practice and an experimental phase,96,no,800,1280,15.72330189,yes,Exp_10_working.osexp,C:\Users\russe\Dropbox,no,mono,no,32,no,#ffffff,no,I confirm that my participation has been explained and consent to taking part in the experiment,NA,1,yes,800,do,droid,48,15,22,C:/Users/russe/Dropbox/Exp_10/New folder/subject-5.csv,droid,Jazzy James,3.1.7,0,22,NA,1,NA,1,1,NA,22,406,NA,738,NA,399,1657,NA,406,2,legacy,Male,1024,2,48000,-16,experiment,5,odd,droid,27786,NA,NA,65355,65764,31176,32314,NA,65356,42619,NA,NA,NA,NA,2377,NA,NA,65764,NA,31915,40961,NA,65356,Runtime for Android template,46,19917,49,0.33333,no,1280,-0.375961134
94,94,20,406.54,406.54,#000000,no,1,droid,legacy,legacy,0,I confirm that my participation has been explained and consent to taking part in the experiment,relative,1,undefined,undefined,1,0,1,0,65,65,0,0,0,65,0,0,0,0,0,0,NA,0,65,0,0,0,NA,65,583,670,04/09/2018 10:25,A template containing a practice and an experimental phase,96,no,800,1280,15.72330189,yes,Exp_10_working.osexp,C:\Users\russe\Dropbox,no,mono,no,32,no,#ffffff,no,I confirm that my participation has been explained and consent to taking part in the experiment,NA,1,yes,800,on,droid,49,15,21,C:/Users/russe/Dropbox/Exp_10/New folder/subject-5.csv,droid,Jazzy James,3.1.7,0,21,NA,1,NA,1,1,NA,21,410,NA,738,NA,399,1657,NA,410,2,legacy,Male,1024,2,48000,-16,experiment,5,odd,droid,27786,NA,NA,65814,66228,31176,32314,NA,65816,42619,NA,NA,NA,NA,2377,NA,NA,66228,NA,31915,40961,NA,65816,Runtime for Android template,47,20327,50,0.0625,no,1280,-0.326602213
94.11764706,94.11764706,20,406.254902,406.254902,#000000,no,1,droid,legacy,legacy,0,I confirm that my participation has been explained and consent to taking part in the experiment,relative,1,undefined,undefined,1,0,1,0,66,66,0,0,0,66,0,0,0,0,0,0,NA,0,66,0,0,0,NA,66,826,531,04/09/2018 10:25,A template containing a practice and an experimental phase,96,no,800,1280,15.72330189,yes,Exp_10_working.osexp,C:\Users\russe\Dropbox,no,mono,no,32,no,#ffffff,no,I confirm that my participation has been explained and consent to taking part in the experiment,NA,1,yes,800,nk,droid,50,15,16,C:/Users/russe/Dropbox/Exp_10/New folder/subject-5.csv,droid,Jazzy James,3.1.7,0,16,NA,1,NA,1,1,NA,16,392,NA,738,NA,399,1657,NA,392,2,legacy,Male,1024,2,48000,-16,experiment,5,odd,droid,27786,NA,NA,66272,66668,31176,32314,NA,66274,42619,NA,NA,NA,NA,2377,NA,NA,66668,NA,31915,40961,NA,66274,Runtime for Android template,48,20719,51,0.2,no,1280,-0.548717358
94.23076923,94.23076923,20,405.6923077,405.6923077,#000000,no,1,droid,legacy,legacy,0,I confirm that my participation has been explained and consent to taking part in the experiment,relative,1,undefined,undefined,1,0,1,0,67,67,0,0,0,67,0,0,0,0,0,0,NA,0,67,0,0,0,NA,67,258,352,04/09/2018 10:25,A template containing a practice and an experimental phase,96,no,800,1280,15.72330189,yes,Exp_10_working.osexp,C:\Users\russe\Dropbox,no,mono,no,32,no,#ffffff,no,I confirm that my participation has been explained and consent to taking part in the experiment,NA,1,yes,800,ke,droid,51,15,8,C:/Users/russe/Dropbox/Exp_10/New folder/subject-5.csv,droid,Jazzy James,3.1.7,0,8,NA,1,NA,1,1,NA,8,377,NA,738,NA,399,1657,NA,377,2,legacy,Male,1024,2,48000,-16,experiment,5,odd,droid,27786,NA,NA,66735,67115,31176,32314,NA,66736,42619,NA,NA,NA,NA,2377,NA,NA,67115,NA,31915,40961,NA,66736,Runtime for Android template,49,21096,52,0.125,no,1280,-0.733813313
92.45283019,92.45283019,20,405.0377358,405.0377358,#000000,no,1,droid,legacy,legacy,0,I confirm that my participation has been explained and consent to taking part in the experiment,relative,0,undefined,undefined,0,0,1,0,68,68,0,0,0,68,0,0,0,0,0,0,NA,0,68,0,0,0,NA,68,624,690,04/09/2018 10:25,A template containing a practice and an experimental phase,96,no,800,1280,15.72330189,yes,Exp_10_working.osexp,C:\Users\russe\Dropbox,no,mono,no,32,no,#ffffff,no,I confirm that my participation has been explained and consent to taking part in the experiment,NA,1,yes,800,eo,droid,52,15,22,C:/Users/russe/Dropbox/Exp_10/New folder/subject-5.csv,droid,Jazzy James,3.1.7,0,21,NA,1,NA,1,1,NA,21,371,NA,738,NA,399,1657,NA,371,2,legacy,Male,1024,2,48000,-16,experiment,5,odd,droid,27786,NA,NA,67190,67564,31176,32314,NA,67191,42619,NA,NA,NA,NA,2377,NA,NA,67564,NA,31915,40961,NA,67191,Runtime for Android template,49,21467,53,0.08333,no,1280,-0.807851695
90.74074074,90.74074074,20,404.8518519,404.8518519,#000000,no,1,droid,legacy,legacy,0,I confirm that my participation has been explained and consent to taking part in the experiment,relative,0,undefined,undefined,0,0,1,0,69,69,0,0,0,69,0,0,0,0,0,0,NA,0,69,0,0,0,NA,69,450,197,04/09/2018 10:25,A template containing a practice and an experimental phase,96,no,800,1280,15.72330189,yes,Exp_10_working.osexp,C:\Users\russe\Dropbox,no,mono,no,32,no,#ffffff,no,I confirm that my participation has been explained and consent to taking part in the experiment,NA,4,yes,800,oa,droid,53,15,2,C:/Users/russe/Dropbox/Exp_10/New folder/subject-5.csv,droid,Jazzy James,3.1.7,0,3,NA,1,NA,1,1,NA,3,395,NA,738,NA,399,1657,NA,395,2,legacy,Male,1024,2,48000,-16,experiment,5,odd,droid,27786,NA,NA,67638,68036,31176,32314,NA,67639,42619,NA,NA,NA,NA,2377,NA,NA,68036,NA,31915,40961,NA,67639,Runtime for Android template,49,21862,54,0.25,no,1280,-0.511698167
90.90909091,90.90909091,20,406.2,406.2,#000000,no,1,droid,legacy,legacy,0,I confirm that my participation has been explained and consent to taking part in the experiment,relative,1,undefined,undefined,1,0,1,0,70,70,0,0,0,70,0,0,0,0,0,0,NA,0,70,0,0,0,NA,70,343,368,04/09/2018 10:25,A template containing a practice and an experimental phase,96,no,800,1280,15.72330189,yes,Exp_10_working.osexp,C:\Users\russe\Dropbox,no,mono,no,32,no,#ffffff,no,I confirm that my participation has been explained and consent to taking part in the experiment,NA,1,yes,800,ae,droid,54,15,8,C:/Users/russe/Dropbox/Exp_10/New folder/subject-5.csv,droid,Jazzy James,3.1.7,0,8,NA,1,NA,1,1,NA,8,479,NA,738,NA,399,1657,NA,479,2,legacy,Male,1024,2,48000,-16,experiment,5,odd,droid,27786,NA,NA,68089,68571,31176,32314,NA,68091,42619,NA,NA,NA,NA,2377,NA,NA,68572,NA,31915,40961,NA,68091,Runtime for Android template,50,22341,55,0.16667,no,1280,0.524839179
91.07142857,91.07142857,20,406.3928571,406.3928571,#000000,no,1,droid,legacy,legacy,0,I confirm that my participation has been explained and consent to taking part in the experiment,relative,1,undefined,undefined,1,0,1,0,71,71,0,0,0,71,0,0,0,0,0,0,NA,0,71,0,0,0,NA,71,341,662,04/09/2018 10:25,A template containing a practice and an experimental phase,96,no,800,1280,15.72330189,yes,Exp_10_working.osexp,C:\Users\russe\Dropbox,no,mono,no,32,no,#ffffff,no,I confirm that my participation has been explained and consent to taking part in the experiment,NA,1,yes,800,em,droid,55,15,20,C:/Users/russe/Dropbox/Exp_10/New folder/subject-5.csv,droid,Jazzy James,3.1.7,0,20,NA,1,NA,1,1,NA,20,417,NA,738,NA,399,1657,NA,417,2,legacy,Male,1024,2,48000,-16,experiment,5,odd,droid,27786,NA,NA,68623,69044,31176,32314,NA,68624,42619,NA,NA,NA,NA,2377,NA,NA,69044,NA,31915,40961,NA,68624,Runtime for Android template,51,22758,56,0.08333,no,1280,-0.2402241
91.22807018,91.22807018,20,405.5438596,405.5438596,#000000,no,1,droid,legacy,legacy,0,I confirm that my participation has been explained and consent to taking part in the experiment,relative,1,undefined,undefined,1,0,1,0,72,72,0,0,0,72,0,0,0,0,0,0,NA,0,72,0,0,0,NA,72,700,756,04/09/2018 10:25,A template containing a practice and an experimental phase,96,no,800,1280,15.72330189,yes,Exp_10_working.osexp,C:\Users\russe\Dropbox,no,mono,no,32,no,#ffffff,no,I confirm that my participation has been explained and consent to taking part in the experiment,NA,2,yes,800,mo,droid,56,15,22,C:/Users/russe/Dropbox/Exp_10/New folder/subject-5.csv,droid,Jazzy James,3.1.7,0,22,NA,1,NA,1,1,NA,22,358,NA,738,NA,399,1657,NA,358,2,legacy,Male,1024,2,48000,-16,experiment,5,odd,droid,27786,NA,NA,69098,69461,31176,32314,NA,69100,42619,NA,NA,NA,NA,2377,NA,NA,69461,NA,31915,40961,NA,69100,Runtime for Android template,52,23116,57,0.22222,no,1280,-0.968268189
91.37931034,91.37931034,20,406.7931034,406.7931034,#000000,no,1,droid,legacy,legacy,0,I confirm that my participation has been explained and consent to taking part in the experiment,relative,1,undefined,undefined,1,0,1,0,73,73,0,0,0,73,0,0,0,0,0,0,NA,0,73,0,0,0,NA,73,748,716,04/09/2018 10:25,A template containing a practice and an experimental phase,96,no,800,1280,15.72330189,yes,Exp_10_working.osexp,C:\Users\russe\Dropbox,no,mono,no,32,no,#ffffff,no,I confirm that my participation has been explained and consent to taking part in the experiment,NA,1,yes,800,oo,droid,57,15,22,C:/Users/russe/Dropbox/Exp_10/New folder/subject-5.csv,droid,Jazzy James,3.1.7,0,22,NA,1,NA,1,1,NA,22,478,NA,738,NA,399,1657,NA,478,2,legacy,Male,1024,2,48000,-16,experiment,5,odd,droid,27786,NA,NA,69546,70027,31176,32314,NA,69548,42619,NA,NA,NA,NA,2377,NA,NA,70027,NA,31915,40961,NA,69548,Runtime for Android template,53,23594,58,0.0625,no,1280,0.512499449
89.83050847,89.83050847,20,408.1016949,408.1016949,#000000,no,1,droid,legacy,legacy,0,I confirm that my participation has been explained and consent to taking part in the experiment,relative,0,undefined,undefined,0,0,1,0,74,74,0,0,0,74,0,0,0,0,0,0,NA,0,74,0,0,0,NA,74,1070,665,04/09/2018 10:25,A template containing a practice and an experimental phase,96,no,800,1280,15.72330189,yes,Exp_10_working.osexp,C:\Users\russe\Dropbox,no,mono,no,32,no,#ffffff,no,I confirm that my participation has been explained and consent to taking part in the experiment,NA,1,yes,800,op,droid,58,15,23,C:/Users/russe/Dropbox/Exp_10/New folder/subject-5.csv,droid,Jazzy James,3.1.7,0,24,NA,1,NA,1,1,NA,24,484,NA,738,NA,399,1657,NA,484,2,legacy,Male,1024,2,48000,-16,experiment,5,odd,droid,27786,NA,NA,70124,70612,31176,32314,NA,70125,42619,NA,NA,NA,NA,2377,NA,NA,70612,NA,31915,40961,NA,70126,Runtime for Android template,53,24078,59,0.0625,no,1280,0.58653783
90,90,20,407.3166667,407.3166667,#000000,no,1,droid,legacy,legacy,0,I confirm that my participation has been explained and consent to taking part in the experiment,relative,1,undefined,undefined,1,0,1,0,75,75,0,0,0,75,0,0,0,0,0,0,NA,0,75,0,0,0,NA,75,786,262,04/09/2018 10:25,A template containing a practice and an experimental phase,96,no,800,1280,15.72330189,yes,Exp_10_working.osexp,C:\Users\russe\Dropbox,no,mono,no,32,no,#ffffff,no,I confirm that my participation has been explained and consent to taking part in the experiment,NA,1,yes,800,pg,droid,59,15,10,C:/Users/russe/Dropbox/Exp_10/New folder/subject-5.csv,droid,Jazzy James,3.1.7,0,10,NA,1,NA,1,1,NA,10,361,NA,738,NA,399,1657,NA,361,2,legacy,Male,1024,2,48000,-16,experiment,5,odd,droid,27786,NA,NA,70671,71036,31176,32314,NA,70673,42619,NA,NA,NA,NA,2377,NA,NA,71036,NA,31915,40961,NA,70673,Runtime for Android template,54,24439,60,0.2,no,1280,-0.931248998
88.52459016,88.52459016,20,406.3442623,406.3442623,#000000,no,1,droid,legacy,legacy,0,I confirm that my participation has been explained and consent to taking part in the experiment,relative,0,undefined,undefined,0,0,1,0,76,76,0,0,0,76,0,0,0,0,0,0,NA,0,76,0,0,0,NA,76,471,529,04/09/2018 10:25,A template containing a practice and an experimental phase,96,no,800,1280,15.72330189,yes,Exp_10_working.osexp,C:\Users\russe\Dropbox,no,mono,no,32,no,#ffffff,no,I confirm that my participation has been explained and consent to taking part in the experiment,NA,1,yes,800,gm,droid,60,15,20,C:/Users/russe/Dropbox/Exp_10/New folder/subject-5.csv,droid,Jazzy James,3.1.7,0,15,NA,1,NA,1,1,NA,15,348,NA,738,NA,399,1657,NA,348,2,legacy,Male,1024,2,48000,-16,experiment,5,odd,droid,27786,NA,NA,71115,71468,31176,32314,NA,71117,42619,NA,NA,NA,NA,2377,NA,NA,71468,NA,31915,40961,NA,71117,Runtime for Android template,54,24787,61,0.2,no,1280,-1.091665492
87.09677419,87.09677419,20,406.2096774,406.2096774,#000000,no,1,droid,legacy,legacy,0,I confirm that my participation has been explained and consent to taking part in the experiment,relative,0,undefined,undefined,0,0,1,0,77,77,0,0,0,77,0,0,0,0,0,0,NA,0,77,0,0,0,NA,77,429,268,04/09/2018 10:25,A template containing a practice and an experimental phase,96,no,800,1280,15.72330189,yes,Exp_10_working.osexp,C:\Users\russe\Dropbox,no,mono,no,32,no,#ffffff,no,I confirm that my participation has been explained and consent to taking part in the experiment,NA,2,yes,800,me,droid,61,15,8,C:/Users/russe/Dropbox/Exp_10/New folder/subject-5.csv,droid,Jazzy James,3.1.7,0,9,NA,1,NA,1,1,NA,9,398,NA,738,NA,399,1657,NA,398,2,legacy,Male,1024,2,48000,-16,experiment,5,odd,droid,27786,NA,NA,71530,71931,31176,32314,NA,71532,42619,NA,NA,NA,NA,2377,NA,NA,71931,NA,31915,40961,NA,71532,Runtime for Android template,54,25185,62,0.22222,no,1280,-0.474678976
87.3015873,87.3015873,20,405.8888889,405.8888889,#000000,no,1,droid,legacy,legacy,0,I confirm that my participation has been explained and consent to taking part in the experiment,relative,1,undefined,undefined,1,0,1,0,78,78,0,0,0,78,0,0,0,0,0,0,NA,0,78,0,0,0,NA,78,656,148,04/09/2018 10:25,A template containing a practice and an experimental phase,96,no,800,1280,15.72330189,yes,Exp_10_working.osexp,C:\Users\russe\Dropbox,no,mono,no,32,no,#ffffff,no,I confirm that my participation has been explained and consent to taking part in the experiment,NA,1,yes,800,ed,droid,62,15,4,C:/Users/russe/Dropbox/Exp_10/New folder/subject-5.csv,droid,Jazzy James,3.1.7,0,4,NA,1,NA,1,1,NA,4,386,NA,738,NA,399,1657,NA,386,2,legacy,Male,1024,2,48000,-16,experiment,5,odd,droid,27786,NA,NA,71990,72380,31176,32314,NA,71991,42619,NA,NA,NA,NA,2377,NA,NA,72380,NA,31915,40961,NA,71992,Runtime for Android template,55,25571,63,0.83333,no,1280,-0.62275574
87.5,87.5,20,406.671875,406.671875,#000000,no,1,droid,legacy,legacy,0,I confirm that my participation has been explained and consent to taking part in the experiment,relative,1,undefined,undefined,1,0,1,0,79,79,0,0,0,79,0,0,0,0,0,0,NA,0,79,0,0,0,NA,79,268,17,04/09/2018 10:25,A template containing a practice and an experimental phase,96,no,800,1280,15.72330189,yes,Exp_10_working.osexp,C:\Users\russe\Dropbox,no,mono,no,32,no,#ffffff,no,I confirm that my participation has been explained and consent to taking part in the experiment,NA,1,yes,800,da,droid,63,15,2,C:/Users/russe/Dropbox/Exp_10/New folder/subject-5.csv,droid,Jazzy James,3.1.7,0,2,NA,1,NA,1,1,NA,2,456,NA,738,NA,399,1657,NA,456,2,legacy,Male,1024,2,48000,-16,experiment,5,odd,droid,27786,NA,NA,72449,72908,31176,32314,NA,72450,42619,NA,NA,NA,NA,2377,NA,NA,72908,NA,31915,40961,NA,72450,Runtime for Android template,56,26027,64,0.33333,no,1280,0.241025382
87.69230769,87.69230769,20,406.8923077,406.8923077,#000000,no,1,droid,legacy,legacy,0,I confirm that my participation has been explained and consent to taking part in the experiment,relative,1,undefined,undefined,1,0,1,0,80,80,0,0,0,80,0,0,0,0,0,0,NA,0,80,0,0,0,NA,80,481,129,04/09/2018 10:25,A template containing a practice and an experimental phase,96,no,800,1280,15.72330189,yes,Exp_10_working.osexp,C:\Users\russe\Dropbox,no,mono,no,32,no,#ffffff,no,I confirm that my participation has been explained and consent to taking part in the experiment,NA,2,yes,800,ab,droid,64,15,3,C:/Users/russe/Dropbox/Exp_10/New folder/subject-5.csv,droid,Jazzy James,3.1.7,0,3,NA,1,NA,1,1,NA,3,421,NA,738,NA,399,1657,NA,421,2,legacy,Male,1024,2,48000,-16,experiment,5,odd,droid,27786,NA,NA,72964,73388,31176,32314,NA,72965,42619,NA,NA,NA,NA,2377,NA,NA,73388,NA,31915,40961,NA,72965,Runtime for Android template,57,26448,65,0.33333,no,1280,-0.190865179
86.36363636,86.36363636,20,407.1363636,407.1363636,#000000,no,1,droid,legacy,legacy,0,I confirm that my participation has been explained and consent to taking part in the experiment,relative,0,undefined,undefined,0,0,1,0,81,81,0,0,0,81,0,0,0,0,0,0,NA,0,81,0,0,0,NA,81,874,545,04/09/2018 10:25,A template containing a practice and an experimental phase,96,no,800,1280,15.72330189,yes,Exp_10_working.osexp,C:\Users\russe\Dropbox,no,mono,no,32,no,#ffffff,no,I confirm that my participation has been explained and consent to taking part in the experiment,NA,1,yes,800,bp,droid,65,15,23,C:/Users/russe/Dropbox/Exp_10/New folder/subject-5.csv,droid,Jazzy James,3.1.7,0,17,NA,1,NA,1,1,NA,17,423,NA,738,NA,399,1657,NA,423,2,legacy,Male,1024,2,48000,-16,experiment,5,odd,droid,27786,NA,NA,73441,73868,31176,32314,NA,73443,42619,NA,NA,NA,NA,2377,NA,NA,73869,NA,31915,40961,NA,73443,Runtime for Android template,57,26871,66,0.125,no,1280,-0.166185719
86.56716418,86.56716418,20,406.8358209,406.8358209,#000000,no,1,droid,legacy,legacy,0,I confirm that my participation has been explained and consent to taking part in the experiment,relative,1,undefined,undefined,1,0,1,0,82,82,0,0,0,82,0,0,0,0,0,0,NA,0,82,0,0,0,NA,82,301,268,04/09/2018 10:25,A template containing a practice and an experimental phase,96,no,800,1280,15.72330189,yes,Exp_10_working.osexp,C:\Users\russe\Dropbox,no,mono,no,32,no,#ffffff,no,I confirm that my participation has been explained and consent to taking part in the experiment,NA,1,yes,800,pe,droid,66,15,8,C:/Users/russe/Dropbox/Exp_10/New folder/subject-5.csv,droid,Jazzy James,3.1.7,0,8,NA,1,NA,1,1,NA,8,387,NA,738,NA,399,1657,NA,387,2,legacy,Male,1024,2,48000,-16,experiment,5,odd,droid,27786,NA,NA,73941,74332,31176,32314,NA,73943,42619,NA,NA,NA,NA,2377,NA,NA,74332,NA,31915,40961,NA,73943,Runtime for Android template,58,27258,67,0.2,no,1280,-0.61041601
86.76470588,86.76470588,20,407.25,407.25,#000000,no,1,droid,legacy,legacy,0,I confirm that my participation has been explained and consent to taking part in the experiment,relative,1,undefined,undefined,1,0,1,0,83,83,0,0,0,83,0,0,0,0,0,0,NA,0,83,0,0,0,NA,83,325,339,04/09/2018 10:25,A template containing a practice and an experimental phase,96,no,800,1280,15.72330189,yes,Exp_10_working.osexp,C:\Users\russe\Dropbox,no,mono,no,32,no,#ffffff,no,I confirm that my participation has been explained and consent to taking part in the experiment,NA,2,yes,800,ee,droid,67,15,8,C:/Users/russe/Dropbox/Exp_10/New folder/subject-5.csv,droid,Jazzy James,3.1.7,0,8,NA,1,NA,1,1,NA,8,435,NA,738,NA,399,1657,NA,435,2,legacy,Male,1024,2,48000,-16,experiment,5,odd,droid,27786,NA,NA,74382,74819,31176,32314,NA,74383,42619,NA,NA,NA,NA,2377,NA,NA,74820,NA,31915,40961,NA,74383,Runtime for Android template,59,27693,68,0.16667,no,1280,-0.018108955
86.95652174,86.95652174,20,408.1449275,408.1449275,#000000,no,1,droid,legacy,legacy,0,I confirm that my participation has been explained and consent to taking part in the experiment,relative,1,undefined,undefined,1,0,1,0,84,84,0,0,0,84,0,0,0,0,0,0,NA,0,84,0,0,0,NA,84,558,162,04/09/2018 10:25,A template containing a practice and an experimental phase,96,no,800,1280,15.72330189,yes,Exp_10_working.osexp,C:\Users\russe\Dropbox,no,mono,no,32,no,#ffffff,no,I confirm that my participation has been explained and consent to taking part in the experiment,NA,1,yes,800,eb,droid,68,15,3,C:/Users/russe/Dropbox/Exp_10/New folder/subject-5.csv,droid,Jazzy James,3.1.7,0,3,NA,1,NA,1,1,NA,3,469,NA,738,NA,399,1657,NA,469,2,legacy,Male,1024,2,48000,-16,experiment,5,odd,droid,27786,NA,NA,74947,75419,31176,32314,NA,74949,42619,NA,NA,NA,NA,2377,NA,NA,75420,NA,31915,40961,NA,74949,Runtime for Android template,60,28162,69,0.08333,no,1280,0.401441876
87.14285714,87.14285714,20,408.2,408.2,#000000,no,1,droid,legacy,legacy,0,I confirm that my participation has been explained and consent to taking part in the experiment,relative,1,undefined,undefined,1,0,1,0,85,85,0,0,0,85,0,0,0,0,0,0,NA,0,85,0,0,0,NA,85,253,278,04/09/2018 10:25,A template containing a practice and an experimental phase,96,no,800,1280,15.72330189,yes,Exp_10_working.osexp,C:\Users\russe\Dropbox,no,mono,no,32,no,#ffffff,no,I confirm that my participation has been explained and consent to taking part in the experiment,NA,1,yes,800,be,droid,69,15,8,C:/Users/russe/Dropbox/Exp_10/New folder/subject-5.csv,droid,Jazzy James,3.1.7,0,8,NA,1,NA,1,1,NA,8,412,NA,738,NA,399,1657,NA,412,2,legacy,Male,1024,2,48000,-16,experiment,5,odd,droid,27786,NA,NA,75524,75940,31176,32314,NA,75526,42619,NA,NA,NA,NA,2377,NA,NA,75940,NA,31915,40961,NA,75526,Runtime for Android template,61,28574,70,0.125,no,1280,-0.301922752
87.32394366,87.32394366,20,407.8732394,407.8732394,#000000,no,1,droid,legacy,legacy,0,I confirm that my participation has been explained and consent to taking part in the experiment,relative,1,undefined,undefined,1,0,1,0,86,86,0,0,0,86,0,0,0,0,0,0,NA,0,86,0,0,0,NA,86,526,89,04/09/2018 10:25,A template containing a practice and an experimental phase,96,no,800,1280,15.72330189,yes,Exp_10_working.osexp,C:\Users\russe\Dropbox,no,mono,no,32,no,#ffffff,no,I confirm that my participation has been explained and consent to taking part in the experiment,NA,2,yes,800,bb,droid,70,15,3,C:/Users/russe/Dropbox/Exp_10/New folder/subject-5.csv,droid,Jazzy James,3.1.7,0,3,NA,1,NA,1,1,NA,3,385,NA,738,NA,399,1657,NA,385,2,legacy,Male,1024,2,48000,-16,experiment,5,odd,droid,27786,NA,NA,75999,76388,31176,32314,NA,76001,42619,NA,NA,NA,NA,2377,NA,NA,76388,NA,31915,40961,NA,76001,Runtime for Android template,62,28959,71,0.25,no,1280,-0.63509547
86.11111111,86.11111111,20,408.5,408.5,#000000,no,1,droid,legacy,legacy,0,I confirm that my participation has been explained and consent to taking part in the experiment,relative,0,undefined,undefined,0,0,1,0,87,87,0,0,0,87,0,0,0,0,0,0,NA,0,87,0,0,0,NA,87,848,245,04/09/2018 10:25,A template containing a practice and an experimental phase,96,no,800,1280,15.72330189,yes,Exp_10_working.osexp,C:\Users\russe\Dropbox,no,mono,no,32,no,#ffffff,no,I confirm that my participation has been explained and consent to taking part in the experiment,NA,1,yes,800,bc,droid,71,15,4,C:/Users/russe/Dropbox/Exp_10/New folder/subject-5.csv,droid,Jazzy James,3.1.7,0,10,NA,1,NA,1,1,NA,10,453,NA,738,NA,399,1657,NA,453,2,legacy,Male,1024,2,48000,-16,experiment,5,odd,droid,27786,NA,NA,76476,76932,31176,32314,NA,76477,42619,NA,NA,NA,NA,2377,NA,NA,76932,NA,31915,40961,NA,76477,Runtime for Android template,62,29412,72,0.125,no,1280,0.204006191
86.30136986,86.30136986,20,409.0547945,409.0547945,#000000,no,1,droid,legacy,legacy,0,I confirm that my participation has been explained and consent to taking part in the experiment,relative,1,undefined,undefined,1,0,1,0,88,88,0,0,0,88,0,0,0,0,0,0,NA,0,88,0,0,0,NA,88,720,691,04/09/2018 10:25,A template containing a practice and an experimental phase,96,no,800,1280,15.72330189,yes,Exp_10_working.osexp,C:\Users\russe\Dropbox,no,mono,no,32,no,#ffffff,no,I confirm that my participation has been explained and consent to taking part in the experiment,NA,3,yes,800,co,droid,72,15,22,C:/Users/russe/Dropbox/Exp_10/New folder/subject-5.csv,droid,Jazzy James,3.1.7,0,22,NA,1,NA,1,1,NA,22,449,NA,738,NA,399,1657,NA,449,2,legacy,Male,1024,2,48000,-16,experiment,5,odd,droid,27786,NA,NA,76992,77444,31176,32314,NA,76993,42619,NA,NA,NA,NA,2377,NA,NA,77444,NA,31915,40961,NA,76993,Runtime for Android template,63,29861,73,0.3,no,1280,0.154647269
86.48648649,86.48648649,20,410.9054054,410.9054054,#000000,no,1,droid,legacy,legacy,0,I confirm that my participation has been explained and consent to taking part in the experiment,relative,1,undefined,undefined,1,0,1,0,89,89,0,0,0,89,0,0,0,0,0,0,NA,0,89,0,0,0,NA,89,256,44,04/09/2018 10:25,A template containing a practice and an experimental phase,96,no,800,1280,15.72330189,yes,Exp_10_working.osexp,C:\Users\russe\Dropbox,no,mono,no,32,no,#ffffff,no,I confirm that my participation has been explained and consent to taking part in the experiment,NA,4,yes,800,oa,droid,73,15,2,C:/Users/russe/Dropbox/Exp_10/New folder/subject-5.csv,droid,Jazzy James,3.1.7,0,2,NA,1,NA,1,1,NA,2,546,NA,738,NA,399,1657,NA,546,2,legacy,Male,1024,2,48000,-16,experiment,5,odd,droid,27786,NA,NA,77534,78085,31176,32314,NA,77536,42619,NA,NA,NA,NA,2377,NA,NA,78085,NA,31915,40961,NA,77536,Runtime for Android template,64,30407,74,0.25,no,1280,1.35160111
86.66666667,86.66666667,20,411.5466667,411.5466667,#000000,no,1,droid,legacy,legacy,0,I confirm that my participation has been explained and consent to taking part in the experiment,relative,1,undefined,undefined,1,0,1,0,90,90,0,0,0,90,0,0,0,0,0,0,NA,0,90,0,0,0,NA,90,664,651,04/09/2018 10:25,A template containing a practice and an experimental phase,96,no,800,1280,15.72330189,yes,Exp_10_working.osexp,C:\Users\russe\Dropbox,no,mono,no,32,no,#ffffff,no,I confirm that my participation has been explained and consent to taking part in the experiment,NA,2,yes,800,ao,droid,74,15,22,C:/Users/russe/Dropbox/Exp_10/New folder/subject-5.csv,droid,Jazzy James,3.1.7,0,22,NA,1,NA,1,1,NA,22,459,NA,738,NA,399,1657,NA,459,2,legacy,Male,1024,2,48000,-16,experiment,5,odd,droid,27786,NA,NA,78150,78612,31176,32314,NA,78151,42619,NA,NA,NA,NA,2377,NA,NA,78612,NA,31915,40961,NA,78151,Runtime for Android template,65,30866,75,0.33333,no,1280,0.278044573
86.84210526,86.84210526,20,411.6052632,411.6052632,#000000,no,1,droid,legacy,legacy,0,I confirm that my participation has been explained and consent to taking part in the experiment,relative,1,undefined,undefined,1,0,1,0,91,91,0,0,0,91,0,0,0,0,0,0,NA,0,91,0,0,0,NA,91,694,56,04/09/2018 10:25,A template containing a practice and an experimental phase,96,no,800,1280,15.72330189,yes,Exp_10_working.osexp,C:\Users\russe\Dropbox,no,mono,no,32,no,#ffffff,no,I confirm that my participation has been explained and consent to taking part in the experiment,NA,2,yes,800,oc,droid,75,15,4,C:/Users/russe/Dropbox/Exp_10/New folder/subject-5.csv,droid,Jazzy James,3.1.7,0,4,NA,1,NA,1,1,NA,4,416,NA,738,NA,399,1657,NA,416,2,legacy,Male,1024,2,48000,-16,experiment,5,odd,droid,27786,NA,NA,78665,79084,31176,32314,NA,78666,42619,NA,NA,NA,NA,2377,NA,NA,79084,NA,31915,40961,NA,78666,Runtime for Android template,66,31282,76,0.125,no,1280,-0.252563831
85.71428571,85.71428571,20,411.7142857,411.7142857,#000000,no,1,droid,legacy,legacy,0,I confirm that my participation has been explained and consent to taking part in the experiment,relative,0,undefined,undefined,0,0,1,0,92,92,0,0,0,92,0,0,0,0,0,0,NA,0,92,0,0,0,NA,92,778,626,04/09/2018 10:25,A template containing a practice and an experimental phase,96,no,800,1280,15.72330189,yes,Exp_10_working.osexp,C:\Users\russe\Dropbox,no,mono,no,32,no,#ffffff,no,I confirm that my participation has been explained and consent to taking part in the experiment,NA,1,yes,800,ck,droid,76,15,16,C:/Users/russe/Dropbox/Exp_10/New folder/subject-5.csv,droid,Jazzy James,3.1.7,0,22,NA,1,NA,1,1,NA,22,420,NA,738,NA,399,1657,NA,420,2,legacy,Male,1024,2,48000,-16,experiment,5,odd,droid,27786,NA,NA,79132,79556,31176,32314,NA,79134,42619,NA,NA,NA,NA,2377,NA,NA,79556,NA,31915,40961,NA,79134,Runtime for Android template,66,31702,77,0.1,no,1280,-0.20320491
85.8974359,85.8974359,20,411.1282051,411.1282051,#000000,no,1,droid,legacy,legacy,0,I confirm that my participation has been explained and consent to taking part in the experiment,relative,1,undefined,undefined,1,0,1,0,93,93,0,0,0,93,0,0,0,0,0,0,NA,0,93,0,0,0,NA,93,726,312,04/09/2018 10:25,A template containing a practice and an experimental phase,96,no,800,1280,15.72330189,yes,Exp_10_working.osexp,C:\Users\russe\Dropbox,no,mono,no,32,no,#ffffff,no,I confirm that my participation has been explained and consent to taking part in the experiment,NA,1,yes,800,kg,droid,77,15,10,C:/Users/russe/Dropbox/Exp_10/New folder/subject-5.csv,droid,Jazzy James,3.1.7,0,10,NA,1,NA,1,1,NA,10,366,NA,738,NA,399,1657,NA,366,2,legacy,Male,1024,2,48000,-16,experiment,5,odd,droid,27786,NA,NA,79626,79996,31176,32314,NA,79628,42619,NA,NA,NA,NA,2377,NA,NA,79996,NA,31915,40961,NA,79628,Runtime for Android template,67,32068,78,0.125,no,1280,-0.869550346
86.07594937,86.07594937,20,411.0759494,411.0759494,#000000,no,1,droid,legacy,legacy,0,I confirm that my participation has been explained and consent to taking part in the experiment,relative,1,undefined,undefined,1,0,1,0,94,94,0,0,0,94,0,0,0,0,0,0,NA,0,94,0,0,0,NA,94,565,673,04/09/2018 10:25,A template containing a practice and an experimental phase,96,no,800,1280,15.72330189,yes,Exp_10_working.osexp,C:\Users\russe\Dropbox,no,mono,no,32,no,#ffffff,no,I confirm that my participation has been explained and consent to taking part in the experiment,NA,1,yes,800,gn,droid,78,15,21,C:/Users/russe/Dropbox/Exp_10/New folder/subject-5.csv,droid,Jazzy James,3.1.7,0,21,NA,1,NA,1,1,NA,21,407,NA,738,NA,399,1657,NA,407,2,legacy,Male,1024,2,48000,-16,experiment,5,odd,droid,27786,NA,NA,80041,80451,31176,32314,NA,80043,42619,NA,NA,NA,NA,2377,NA,NA,80452,NA,31915,40961,NA,80043,Runtime for Android template,68,32475,79,0.2,no,1280,-0.363621404
85,85,20,411.15,411.15,#000000,no,1,droid,legacy,legacy,0,I confirm that my participation has been explained and consent to taking part in the experiment,relative,0,undefined,undefined,0,0,1,0,95,95,0,0,0,95,0,0,0,0,0,0,NA,0,95,0,0,0,NA,95,1097,231,04/09/2018 10:25,A template containing a practice and an experimental phase,96,no,800,1280,15.72330189,yes,Exp_10_working.osexp,C:\Users\russe\Dropbox,no,mono,no,32,no,#ffffff,no,I confirm that my participation has been explained and consent to taking part in the experiment,NA,4,yes,800,nh,droid,79,15,11,C:/Users/russe/Dropbox/Exp_10/New folder/subject-5.csv,droid,Jazzy James,3.1.7,0,12,NA,1,NA,1,1,NA,12,417,NA,738,NA,399,1657,NA,417,2,legacy,Male,1024,2,48000,-16,experiment,5,odd,droid,27786,NA,NA,80511,80932,31176,32314,NA,80513,42619,NA,NA,NA,NA,2377,NA,NA,80932,NA,31915,40961,NA,80513,Runtime for Android template,68,32892,80,0.8,no,1280,-0.2402241
85.18518519,85.18518519,20,410.5308642,410.5308642,#000000,no,1,droid,legacy,legacy,0,I confirm that my participation has been explained and consent to taking part in the experiment,relative,1,undefined,undefined,1,0,1,0,96,96,0,0,0,96,0,0,0,0,0,0,NA,0,96,0,0,0,NA,96,957,331,04/09/2018 10:25,A template containing a practice and an experimental phase,96,no,800,1280,15.72330189,yes,Exp_10_working.osexp,C:\Users\russe\Dropbox,no,mono,no,32,no,#ffffff,no,I confirm that my participation has been explained and consent to taking part in the experiment,NA,1,yes,800,hn,droid,80,15,11,C:/Users/russe/Dropbox/Exp_10/New folder/subject-5.csv,droid,Jazzy James,3.1.7,0,11,NA,1,NA,1,1,NA,11,361,NA,738,NA,399,1657,NA,361,2,legacy,Male,1024,2,48000,-16,experiment,5,odd,droid,27786,NA,NA,80991,81355,31176,32314,NA,80993,42619,NA,NA,NA,NA,2377,NA,NA,81355,NA,31915,40961,NA,80993,Runtime for Android template,69,33253,81,0.07692,no,1280,-0.931248998
85.36585366,85.36585366,20,409.9268293,409.9268293,#000000,no,1,droid,legacy,legacy,0,I confirm that my participation has been explained and consent to taking part in the experiment,relative,1,undefined,undefined,1,0,1,0,97,97,0,0,0,97,0,0,0,0,0,0,NA,0,97,0,0,0,NA,97,427,773,04/09/2018 10:25,A template containing a practice and an experimental phase,96,no,800,1280,15.72330189,yes,Exp_10_working.osexp,C:\Users\russe\Dropbox,no,mono,no,32,no,#ffffff,no,I confirm that my participation has been explained and consent to taking part in the experiment,NA,4,yes,800,nh,droid,81,15,21,C:/Users/russe/Dropbox/Exp_10/New folder/subject-5.csv,droid,Jazzy James,3.1.7,0,21,NA,1,NA,1,1,NA,21,361,NA,738,NA,399,1657,NA,361,2,legacy,Male,1024,2,48000,-16,experiment,5,odd,droid,27786,NA,NA,81399,81764,31176,32314,NA,81401,42619,NA,NA,NA,NA,2377,NA,NA,81764,NA,31915,40961,NA,81401,Runtime for Android template,70,33614,82,0.8,no,1280,-0.931248998
85.54216867,85.54216867,20,409.2168675,409.2168675,#000000,no,1,droid,legacy,legacy,0,I confirm that my participation has been explained and consent to taking part in the experiment,relative,1,undefined,undefined,1,0,1,0,98,98,0,0,0,98,0,0,0,0,0,0,NA,0,98,0,0,0,NA,98,974,719,04/09/2018 10:25,A template containing a practice and an experimental phase,96,no,800,1280,15.72330189,yes,Exp_10_working.osexp,C:\Users\russe\Dropbox,no,mono,no,32,no,#ffffff,no,I confirm that my participation has been explained and consent to taking part in the experiment,NA,1,yes,800,hp,droid,82,15,23,C:/Users/russe/Dropbox/Exp_10/New folder/subject-5.csv,droid,Jazzy James,3.1.7,0,23,NA,1,NA,1,1,NA,23,351,NA,738,NA,399,1657,NA,351,2,legacy,Male,1024,2,48000,-16,experiment,5,odd,droid,27786,NA,NA,81825,82180,31176,32314,NA,81827,42619,NA,NA,NA,NA,2377,NA,NA,82180,NA,31915,40961,NA,81827,Runtime for Android template,71,33965,83,0.07692,no,1280,-1.054646301
85.71428571,85.71428571,20,410.0714286,410.0714286,#000000,no,1,droid,legacy,legacy,0,I confirm that my participation has been explained and consent to taking part in the experiment,relative,1,undefined,undefined,1,0,1,0,99,99,0,0,0,99,0,0,0,0,0,0,NA,0,99,0,0,0,NA,99,289,775,04/09/2018 10:25,A template containing a practice and an experimental phase,96,no,800,1280,15.72330189,yes,Exp_10_working.osexp,C:\Users\russe\Dropbox,no,mono,no,32,no,#ffffff,no,I confirm that my participation has been explained and consent to taking part in the experiment,NA,1,yes,800,pm,droid,83,15,20,C:/Users/russe/Dropbox/Exp_10/New folder/subject-5.csv,droid,Jazzy James,3.1.7,0,20,NA,1,NA,1,1,NA,20,481,NA,738,NA,399,1657,NA,481,2,legacy,Male,1024,2,48000,-16,experiment,5,odd,droid,27786,NA,NA,82246,82732,31176,32314,NA,82248,42619,NA,NA,NA,NA,2377,NA,NA,82732,NA,31915,40961,NA,82248,Runtime for Android template,72,34446,84,0.2,no,1280,0.549518639
85.88235294,85.88235294,20,410.7411765,410.7411765,#000000,no,1,droid,legacy,legacy,0,I confirm that my participation has been explained and consent to taking part in the experiment,relative,1,undefined,undefined,1,0,1,0,100,100,0,0,0,100,0,0,0,0,0,0,NA,0,100,0,0,0,NA,100,911,339,04/09/2018 10:25,A template containing a practice and an experimental phase,96,no,800,1280,15.72330189,yes,Exp_10_working.osexp,C:\Users\russe\Dropbox,no,mono,no,32,no,#ffffff,no,I confirm that my participation has been explained and consent to taking part in the experiment,NA,1,yes,800,mh,droid,84,15,11,C:/Users/russe/Dropbox/Exp_10/New folder/subject-5.csv,droid,Jazzy James,3.1.7,0,11,NA,1,NA,1,1,NA,11,467,NA,738,NA,399,1657,NA,467,2,legacy,Male,1024,2,48000,-16,experiment,5,odd,droid,27786,NA,NA,82814,83284,31176,32314,NA,82815,42619,NA,NA,NA,NA,2377,NA,NA,83284,NA,31915,40961,NA,82815,Runtime for Android template,73,34913,85,0.11111,no,1280,0.376762415
86.04651163,86.04651163,20,409.8953488,409.8953488,#000000,no,1,droid,legacy,legacy,0,I confirm that my participation has been explained and consent to taking part in the experiment,relative,1,undefined,undefined,1,0,1,0,101,101,0,0,0,101,0,0,0,0,0,0,NA,0,101,0,0,0,NA,101,559,445,04/09/2018 10:25,A template containing a practice and an experimental phase,96,no,800,1280,15.72330189,yes,Exp_10_working.osexp,C:\Users\russe\Dropbox,no,mono,no,32,no,#ffffff,no,I confirm that my participation has been explained and consent to taking part in the experiment,NA,2,yes,800,hj,droid,85,15,15,C:/Users/russe/Dropbox/Exp_10/New folder/subject-5.csv,droid,Jazzy James,3.1.7,0,15,NA,1,NA,1,1,NA,15,338,NA,738,NA,399,1657,NA,338,2,legacy,Male,1024,2,48000,-16,experiment,5,odd,droid,27786,NA,NA,83342,83684,31176,32314,NA,83344,42619,NA,NA,NA,NA,2377,NA,NA,83684,NA,31915,40961,NA,83344,Runtime for Android template,74,35251,86,0.15385,no,1280,-1.215062795
86.20689655,86.20689655,20,409.6781609,409.6781609,#000000,no,1,droid,legacy,legacy,0,I confirm that my participation has been explained and consent to taking part in the experiment,relative,1,undefined,undefined,1,0,1,0,102,102,0,0,0,102,0,0,0,0,0,0,NA,0,102,0,0,0,NA,102,885,279,04/09/2018 10:25,A template containing a practice and an experimental phase,96,no,800,1280,15.72330189,yes,Exp_10_working.osexp,C:\Users\russe\Dropbox,no,mono,no,32,no,#ffffff,no,I confirm that my participation has been explained and consent to taking part in the experiment,NA,1,yes,800,jh,droid,86,15,11,C:/Users/russe/Dropbox/Exp_10/New folder/subject-5.csv,droid,Jazzy James,3.1.7,0,11,NA,1,NA,1,1,NA,11,391,NA,738,NA,399,1657,NA,391,2,legacy,Male,1024,2,48000,-16,experiment,5,odd,droid,27786,NA,NA,83760,84156,31176,32314,NA,83762,42619,NA,NA,NA,NA,2377,NA,NA,84156,NA,31915,40961,NA,83762,Runtime for Android template,75,35642,87,0.125,no,1280,-0.561057089
86.36363636,86.36363636,20,409.9318182,409.9318182,#000000,no,1,droid,legacy,legacy,0,I confirm that my participation has been explained and consent to taking part in the experiment,relative,1,undefined,undefined,1,0,1,0,103,103,0,0,0,103,0,0,0,0,0,0,NA,0,103,0,0,0,NA,103,726,342,04/09/2018 10:25,A template containing a practice and an experimental phase,96,no,800,1280,15.72330189,yes,Exp_10_working.osexp,C:\Users\russe\Dropbox,no,mono,no,32,no,#ffffff,no,I confirm that my participation has been explained and consent to taking part in the experiment,NA,2,yes,800,hg,droid,87,15,10,C:/Users/russe/Dropbox/Exp_10/New folder/subject-5.csv,droid,Jazzy James,3.1.7,0,10,NA,1,NA,1,1,NA,10,432,NA,738,NA,399,1657,NA,432,2,legacy,Male,1024,2,48000,-16,experiment,5,odd,droid,27786,NA,NA,84209,84643,31176,32314,NA,84210,42619,NA,NA,NA,NA,2377,NA,NA,84644,NA,31915,40961,NA,84210,Runtime for Android template,76,36074,88,0.15385,no,1280,-0.055128146
86.51685393,86.51685393,20,409.1460674,409.1460674,#000000,no,1,droid,legacy,legacy,0,I confirm that my participation has been explained and consent to taking part in the experiment,relative,1,undefined,undefined,1,0,1,0,104,104,0,0,0,104,0,0,0,0,0,0,NA,0,104,0,0,0,NA,104,533,498,04/09/2018 10:25,A template containing a practice and an experimental phase,96,no,800,1280,15.72330189,yes,Exp_10_working.osexp,C:\Users\russe\Dropbox,no,mono,no,32,no,#ffffff,no,I confirm that my participation has been explained and consent to taking part in the experiment,NA,1,yes,800,gj,droid,88,15,15,C:/Users/russe/Dropbox/Exp_10/New folder/subject-5.csv,droid,Jazzy James,3.1.7,0,15,NA,1,NA,1,1,NA,15,340,NA,738,NA,399,1657,NA,340,2,legacy,Male,1024,2,48000,-16,experiment,5,odd,droid,27786,NA,NA,84693,85036,31176,32314,NA,84694,42619,NA,NA,NA,NA,2377,NA,NA,85036,NA,31915,40961,NA,84694,Runtime for Android template,77,36414,89,0.2,no,1280,-1.190383334
