acc,accuracy,age,average_response_time,avg_rt,background,bidi,block,canvas_backend,clock_backend,color_backend,compensation,consent,coordinates,correct,correct_Instructions,correct_new_sketchpad,correct_new_touch_response_4,count_Age,count_Break,count_Consent,count_Experimental_sequence,count_ISI,count_Instructions,count_Prac_block,count_Sex,count_Test_pad,count_block_1,count_block_2,count_block_3,count_block_4,count_block_5,count_experiment,count_feedback,count_incongruent_block,count_logger,count_new_reset_feedback,count_new_sketchpad,count_new_sketchpad_1,count_new_sketchpad_3,count_new_touch_response_4,cursor_x,cursor_y,datetime,description,device_dpi,device_is_tablet,device_resolution_height,device_resolution_width,device_screen_diag,disable_garbage_collection,experiment_file,experiment_path,font_bold,font_family,font_italic,font_size,font_underline,foreground,form_clicks,form_response,form_var,freq,fullscreen,height,key,keyboard_backend,live_row,live_row_Prac_block,loc,logfile,mouse_backend,opensesame_codename,opensesame_version,repeat_cycle,response,response_Break,response_Instructions,response_feedback,response_new_sketchpad,response_new_sketchpad_1,response_new_sketchpad_3,response_new_touch_response_4,response_time,response_time_Break,response_time_Instructions,response_time_feedback,response_time_new_sketchpad,response_time_new_sketchpad_1,response_time_new_sketchpad_3,response_time_new_touch_response_4,round_decimals,sampler_backend,sex,sound_buf_size,sound_channels,sound_freq,sound_sample_size,start,subject_nr,subject_parity,synth_backend,time_Age,time_Break,time_Consent,time_Experimental_sequence,time_ISI,time_Instructions,time_Prac_block,time_Sex,time_Test_pad,time_block_1,time_block_2,time_block_3,time_block_4,time_block_5,time_experiment,time_feedback,time_incongruent_block,time_logger,time_new_reset_feedback,time_new_sketchpad,time_new_sketchpad_1,time_new_sketchpad_3,time_new_touch_response_4,title,total_correct,total_response_time,total_responses,tp,uniform_coordinates,width,z
100,100,26,411,411,#000000,no,NA,droid,legacy,legacy,0,I confirm that my participation has been explained and consent to taking part in the experiment,relative,1,undefined,undefined,1,0,1,0,0,0,0,0,0,0,0,0,0,0,0,0,NA,0,0,0,0,0,NA,0,313,510,04/09/2018 11:23,A template containing a practice and an experimental phase,96,no,800,1280,15.72330189,yes,Exp_10_working.osexp,C:\Users\russe\Dropbox,no,mono,no,32,no,#ffffff,no,I confirm that my participation has been explained and consent to taking part in the experiment,NA,NA,yes,800,NA,droid,0,0,14,C:/Users/russe/Dropbox/Exp_10/New folder/subject-9.csv,droid,Jazzy James,3.1.7,0,14,NA,1,NA,1,NA,NA,14,411,NA,779,NA,470,NA,NA,411,2,legacy,Male,1024,2,48000,-16,experiment,9,odd,droid,4996,NA,NA,11374,11787,10103,11355,NA,11375,NA,NA,NA,NA,NA,2354,NA,NA,11788,NA,10884,NA,NA,11375,Runtime for Android template,1,411,1,NA,no,1280,-0.142275141
100,100,26,429.5,429.5,#000000,no,NA,droid,legacy,legacy,0,I confirm that my participation has been explained and consent to taking part in the experiment,relative,1,undefined,undefined,1,0,1,0,1,1,0,0,0,1,0,0,0,0,0,0,NA,0,1,0,0,0,NA,1,854,462,04/09/2018 11:23,A template containing a practice and an experimental phase,96,no,800,1280,15.72330189,yes,Exp_10_working.osexp,C:\Users\russe\Dropbox,no,mono,no,32,no,#ffffff,no,I confirm that my participation has been explained and consent to taking part in the experiment,NA,NA,yes,800,NA,droid,1,1,17,C:/Users/russe/Dropbox/Exp_10/New folder/subject-9.csv,droid,Jazzy James,3.1.7,0,17,NA,1,NA,1,NA,NA,17,448,NA,779,NA,470,NA,NA,448,2,legacy,Male,1024,2,48000,-16,experiment,9,odd,droid,4996,NA,NA,11856,12308,10103,11355,NA,11858,NA,NA,NA,NA,NA,2354,NA,NA,12308,NA,10884,NA,NA,11858,Runtime for Android template,2,859,2,NA,no,1280,0.235999111
100,100,26,459.3333333,459.3333333,#000000,no,NA,droid,legacy,legacy,0,I confirm that my participation has been explained and consent to taking part in the experiment,relative,1,undefined,undefined,1,0,1,0,2,2,0,0,0,2,0,0,0,0,0,0,NA,0,2,0,0,0,NA,2,589,115,04/09/2018 11:23,A template containing a practice and an experimental phase,96,no,800,1280,15.72330189,yes,Exp_10_working.osexp,C:\Users\russe\Dropbox,no,mono,no,32,no,#ffffff,no,I confirm that my participation has been explained and consent to taking part in the experiment,NA,NA,yes,800,NA,droid,2,2,3,C:/Users/russe/Dropbox/Exp_10/New folder/subject-9.csv,droid,Jazzy James,3.1.7,0,3,NA,1,NA,1,NA,NA,3,519,NA,779,NA,470,NA,NA,519,2,legacy,Male,1024,2,48000,-16,experiment,9,odd,droid,4996,NA,NA,12369,12892,10103,11355,NA,12371,NA,NA,NA,NA,NA,2354,NA,NA,12892,NA,10884,NA,NA,12371,Runtime for Android template,3,1378,3,NA,no,1280,0.961876728
100,100,26,465,465,#000000,no,NA,droid,legacy,legacy,0,I confirm that my participation has been explained and consent to taking part in the experiment,relative,1,undefined,undefined,1,0,1,0,3,3,0,0,0,3,0,0,0,0,0,0,NA,0,3,0,0,0,NA,3,941,600,04/09/2018 11:23,A template containing a practice and an experimental phase,96,no,800,1280,15.72330189,yes,Exp_10_working.osexp,C:\Users\russe\Dropbox,no,mono,no,32,no,#ffffff,no,I confirm that my participation has been explained and consent to taking part in the experiment,NA,NA,yes,800,NA,droid,3,3,23,C:/Users/russe/Dropbox/Exp_10/New folder/subject-9.csv,droid,Jazzy James,3.1.7,0,23,NA,1,NA,1,NA,NA,23,482,NA,779,NA,470,NA,NA,482,2,legacy,Male,1024,2,48000,-16,experiment,9,odd,droid,4996,NA,NA,12950,13436,10103,11355,NA,12952,NA,NA,NA,NA,NA,2354,NA,NA,13436,NA,10884,NA,NA,12952,Runtime for Android template,4,1860,4,NA,no,1280,0.583602477
100,100,26,440.2,440.2,#000000,no,NA,droid,legacy,legacy,0,I confirm that my participation has been explained and consent to taking part in the experiment,relative,1,undefined,undefined,1,0,1,0,4,4,0,0,0,4,0,0,0,0,0,0,NA,0,4,0,0,0,NA,4,800,522,04/09/2018 11:23,A template containing a practice and an experimental phase,96,no,800,1280,15.72330189,yes,Exp_10_working.osexp,C:\Users\russe\Dropbox,no,mono,no,32,no,#ffffff,no,I confirm that my participation has been explained and consent to taking part in the experiment,NA,NA,yes,800,NA,droid,4,4,16,C:/Users/russe/Dropbox/Exp_10/New folder/subject-9.csv,droid,Jazzy James,3.1.7,0,16,NA,1,NA,1,NA,NA,16,341,NA,779,NA,470,NA,NA,341,2,legacy,Male,1024,2,48000,-16,experiment,9,odd,droid,4996,NA,NA,13491,13836,10103,11355,NA,13493,NA,NA,NA,NA,NA,2354,NA,NA,13836,NA,10884,NA,NA,13493,Runtime for Android template,5,2201,5,NA,no,1280,-0.85792913
100,100,26,433.1666667,433.1666667,#000000,no,NA,droid,legacy,legacy,0,I confirm that my participation has been explained and consent to taking part in the experiment,relative,1,undefined,undefined,1,0,1,0,5,5,0,0,0,5,0,0,0,0,0,0,NA,0,5,0,0,0,NA,5,743,138,04/09/2018 11:23,A template containing a practice and an experimental phase,96,no,800,1280,15.72330189,yes,Exp_10_working.osexp,C:\Users\russe\Dropbox,no,mono,no,32,no,#ffffff,no,I confirm that my participation has been explained and consent to taking part in the experiment,NA,NA,yes,800,NA,droid,5,5,4,C:/Users/russe/Dropbox/Exp_10/New folder/subject-9.csv,droid,Jazzy James,3.1.7,0,4,NA,1,NA,1,NA,NA,4,398,NA,779,NA,470,NA,NA,398,2,legacy,Male,1024,2,48000,-16,experiment,9,odd,droid,4996,NA,NA,13915,14316,10103,11355,NA,13916,NA,NA,NA,NA,NA,2354,NA,NA,14316,NA,10884,NA,NA,13916,Runtime for Android template,6,2599,6,NA,no,1280,-0.27518231
85.71428571,85.71428571,26,427.2857143,427.2857143,#000000,no,NA,droid,legacy,legacy,0,I confirm that my participation has been explained and consent to taking part in the experiment,relative,0,undefined,undefined,0,0,1,0,6,6,0,0,0,6,0,0,0,0,0,0,NA,0,6,0,0,0,NA,6,442,280,04/09/2018 11:23,A template containing a practice and an experimental phase,96,no,800,1280,15.72330189,yes,Exp_10_working.osexp,C:\Users\russe\Dropbox,no,mono,no,32,no,#ffffff,no,I confirm that my participation has been explained and consent to taking part in the experiment,NA,NA,yes,800,NA,droid,6,6,8,C:/Users/russe/Dropbox/Exp_10/New folder/subject-9.csv,droid,Jazzy James,3.1.7,0,9,NA,1,NA,1,NA,NA,9,392,NA,779,NA,470,NA,NA,392,2,legacy,Male,1024,2,48000,-16,experiment,9,odd,droid,4996,NA,NA,14385,14779,10103,11355,NA,14386,NA,NA,NA,NA,NA,2354,NA,NA,14779,NA,10884,NA,NA,14386,Runtime for Android template,6,2991,7,NA,no,1280,-0.33652408
87.5,87.5,26,424.5,424.5,#000000,no,NA,droid,legacy,legacy,0,I confirm that my participation has been explained and consent to taking part in the experiment,relative,1,undefined,undefined,1,0,1,0,7,7,0,0,0,7,0,0,0,0,0,0,NA,0,7,0,0,0,NA,7,1003,364,04/09/2018 11:23,A template containing a practice and an experimental phase,96,no,800,1280,15.72330189,yes,Exp_10_working.osexp,C:\Users\russe\Dropbox,no,mono,no,32,no,#ffffff,no,I confirm that my participation has been explained and consent to taking part in the experiment,NA,NA,yes,800,NA,droid,7,7,11,C:/Users/russe/Dropbox/Exp_10/New folder/subject-9.csv,droid,Jazzy James,3.1.7,0,11,NA,1,NA,1,NA,NA,11,405,NA,779,NA,470,NA,NA,405,2,legacy,Male,1024,2,48000,-16,experiment,9,odd,droid,4996,NA,NA,14859,15268,10103,11355,NA,14861,NA,NA,NA,NA,NA,2354,NA,NA,15268,NA,10884,NA,NA,14861,Runtime for Android template,7,3396,8,NA,no,1280,-0.203616911
88.88888889,88.88888889,26,417.1111111,417.1111111,#000000,no,NA,droid,legacy,legacy,0,I confirm that my participation has been explained and consent to taking part in the experiment,relative,1,undefined,undefined,1,0,1,0,8,8,0,0,0,8,0,0,0,0,0,0,NA,0,8,0,0,0,NA,8,720,344,04/09/2018 11:23,A template containing a practice and an experimental phase,96,no,800,1280,15.72330189,yes,Exp_10_working.osexp,C:\Users\russe\Dropbox,no,mono,no,32,no,#ffffff,no,I confirm that my participation has been explained and consent to taking part in the experiment,NA,NA,yes,800,NA,droid,8,8,10,C:/Users/russe/Dropbox/Exp_10/New folder/subject-9.csv,droid,Jazzy James,3.1.7,0,10,NA,1,NA,1,NA,NA,10,358,NA,779,NA,470,NA,NA,358,2,legacy,Male,1024,2,48000,-16,experiment,9,odd,droid,4996,NA,NA,15355,15716,10103,11355,NA,15356,NA,NA,NA,NA,NA,2354,NA,NA,15716,NA,10884,NA,NA,15356,Runtime for Android template,8,3754,9,NA,no,1280,-0.684127447
90,90,26,405.7,405.7,#000000,no,NA,droid,legacy,legacy,0,I confirm that my participation has been explained and consent to taking part in the experiment,relative,1,undefined,undefined,1,0,1,0,9,9,0,0,0,9,0,0,0,0,0,0,NA,0,9,0,0,0,NA,9,572,480,04/09/2018 11:23,A template containing a practice and an experimental phase,96,no,800,1280,15.72330189,yes,Exp_10_working.osexp,C:\Users\russe\Dropbox,no,mono,no,32,no,#ffffff,no,I confirm that my participation has been explained and consent to taking part in the experiment,NA,NA,yes,800,NA,droid,9,9,15,C:/Users/russe/Dropbox/Exp_10/New folder/subject-9.csv,droid,Jazzy James,3.1.7,0,15,NA,1,NA,1,NA,NA,15,303,NA,779,NA,470,NA,NA,303,2,legacy,Male,1024,2,48000,-16,experiment,9,odd,droid,4996,NA,NA,15777,16084,10103,11355,NA,15778,NA,NA,NA,NA,NA,2354,NA,NA,16084,NA,10884,NA,NA,15779,Runtime for Android template,9,4057,10,NA,no,1280,-1.246427009
90.90909091,90.90909091,26,399,399,#000000,no,NA,droid,legacy,legacy,0,I confirm that my participation has been explained and consent to taking part in the experiment,relative,1,undefined,undefined,1,0,1,0,10,10,0,0,0,10,0,0,0,0,0,0,NA,0,10,0,0,0,NA,10,758,684,04/09/2018 11:23,A template containing a practice and an experimental phase,96,no,800,1280,15.72330189,yes,Exp_10_working.osexp,C:\Users\russe\Dropbox,no,mono,no,32,no,#ffffff,no,I confirm that my participation has been explained and consent to taking part in the experiment,NA,NA,yes,800,NA,droid,10,10,22,C:/Users/russe/Dropbox/Exp_10/New folder/subject-9.csv,droid,Jazzy James,3.1.7,0,22,NA,1,NA,1,NA,NA,22,332,NA,779,NA,470,NA,NA,332,2,legacy,Male,1024,2,48000,-16,experiment,9,odd,droid,4996,NA,NA,16148,16484,10103,11355,NA,16150,NA,NA,NA,NA,NA,2354,NA,NA,16484,NA,10884,NA,NA,16150,Runtime for Android template,10,4389,11,NA,no,1280,-0.949941785
91.66666667,91.66666667,26,397.5,397.5,#000000,no,NA,droid,legacy,legacy,0,I confirm that my participation has been explained and consent to taking part in the experiment,relative,1,undefined,undefined,1,0,1,0,11,11,0,0,0,11,0,0,0,0,0,0,NA,0,11,0,0,0,NA,11,539,714,04/09/2018 11:23,A template containing a practice and an experimental phase,96,no,800,1280,15.72330189,yes,Exp_10_working.osexp,C:\Users\russe\Dropbox,no,mono,no,32,no,#ffffff,no,I confirm that my participation has been explained and consent to taking part in the experiment,NA,NA,yes,800,NA,droid,11,11,21,C:/Users/russe/Dropbox/Exp_10/New folder/subject-9.csv,droid,Jazzy James,3.1.7,0,21,NA,1,NA,1,NA,NA,21,381,NA,779,NA,470,NA,NA,381,2,legacy,Male,1024,2,48000,-16,experiment,9,odd,droid,4996,NA,NA,16548,16931,10103,11355,NA,16549,NA,NA,NA,NA,NA,2354,NA,NA,16931,NA,10884,NA,NA,16549,Runtime for Android template,11,4770,12,NA,no,1280,-0.448983993
92.30769231,92.30769231,26,398.5384615,398.5384615,#000000,no,NA,droid,legacy,legacy,0,I confirm that my participation has been explained and consent to taking part in the experiment,relative,1,undefined,undefined,1,0,1,0,12,12,0,0,0,12,0,0,0,0,0,0,NA,0,12,0,0,0,NA,12,937,118,04/09/2018 11:23,A template containing a practice and an experimental phase,96,no,800,1280,15.72330189,yes,Exp_10_working.osexp,C:\Users\russe\Dropbox,no,mono,no,32,no,#ffffff,no,I confirm that my participation has been explained and consent to taking part in the experiment,NA,NA,yes,800,NA,droid,12,12,5,C:/Users/russe/Dropbox/Exp_10/New folder/subject-9.csv,droid,Jazzy James,3.1.7,0,5,NA,1,NA,1,NA,NA,5,411,NA,779,NA,470,NA,NA,411,2,legacy,Male,1024,2,48000,-16,experiment,9,odd,droid,4996,NA,NA,16998,17412,10103,11355,NA,16999,NA,NA,NA,NA,NA,2354,NA,NA,17412,NA,10884,NA,NA,16999,Runtime for Android template,12,5181,13,NA,no,1280,-0.142275141
92.85714286,92.85714286,26,402.1428571,402.1428571,#000000,no,NA,droid,legacy,legacy,0,I confirm that my participation has been explained and consent to taking part in the experiment,relative,1,undefined,undefined,1,0,1,0,13,13,0,0,0,13,0,0,0,0,0,0,NA,0,13,0,0,0,NA,13,293,133,04/09/2018 11:23,A template containing a practice and an experimental phase,96,no,800,1280,15.72330189,yes,Exp_10_working.osexp,C:\Users\russe\Dropbox,no,mono,no,32,no,#ffffff,no,I confirm that my participation has been explained and consent to taking part in the experiment,NA,NA,yes,800,NA,droid,13,13,2,C:/Users/russe/Dropbox/Exp_10/New folder/subject-9.csv,droid,Jazzy James,3.1.7,0,2,NA,1,NA,1,NA,NA,2,449,NA,779,NA,470,NA,NA,449,2,legacy,Male,1024,2,48000,-16,experiment,9,odd,droid,4996,NA,NA,17479,17932,10103,11355,NA,17481,NA,NA,NA,NA,NA,2354,NA,NA,17932,NA,10884,NA,NA,17481,Runtime for Android template,13,5630,14,NA,no,1280,0.246222739
93.33333333,93.33333333,26,405.8666667,405.8666667,#000000,no,NA,droid,legacy,legacy,0,I confirm that my participation has been explained and consent to taking part in the experiment,relative,1,undefined,undefined,1,0,1,0,14,14,0,0,0,14,0,0,0,0,0,0,NA,0,14,0,0,0,NA,14,318,740,04/09/2018 11:23,A template containing a practice and an experimental phase,96,no,800,1280,15.72330189,yes,Exp_10_working.osexp,C:\Users\russe\Dropbox,no,mono,no,32,no,#ffffff,no,I confirm that my participation has been explained and consent to taking part in the experiment,NA,NA,yes,800,NA,droid,14,14,20,C:/Users/russe/Dropbox/Exp_10/New folder/subject-9.csv,droid,Jazzy James,3.1.7,0,20,NA,1,NA,1,NA,NA,20,458,NA,779,NA,470,NA,NA,458,2,legacy,Male,1024,2,48000,-16,experiment,9,odd,droid,4996,NA,NA,17990,18452,10103,11355,NA,17992,NA,NA,NA,NA,NA,2354,NA,NA,18452,NA,10884,NA,NA,17992,Runtime for Android template,14,6088,15,NA,no,1280,0.338235395
93.75,93.75,26,402.875,402.875,#000000,no,NA,droid,legacy,legacy,0,I confirm that my participation has been explained and consent to taking part in the experiment,relative,1,undefined,undefined,1,0,1,0,15,15,0,0,0,15,0,0,0,0,0,0,NA,0,15,0,0,0,NA,15,488,363,04/09/2018 11:23,A template containing a practice and an experimental phase,96,no,800,1280,15.72330189,yes,Exp_10_working.osexp,C:\Users\russe\Dropbox,no,mono,no,32,no,#ffffff,no,I confirm that my participation has been explained and consent to taking part in the experiment,NA,NA,yes,800,NA,droid,15,15,9,C:/Users/russe/Dropbox/Exp_10/New folder/subject-9.csv,droid,Jazzy James,3.1.7,0,9,NA,1,NA,1,NA,NA,9,358,NA,779,NA,470,NA,NA,358,2,legacy,Male,1024,2,48000,-16,experiment,9,odd,droid,4996,NA,NA,18530,18892,10103,11355,NA,18532,NA,NA,NA,NA,NA,2354,NA,NA,18892,NA,10884,NA,NA,18532,Runtime for Android template,15,6446,16,NA,no,1280,-0.684127447
100,100,26,474,474,#000000,no,1,droid,legacy,legacy,0,I confirm that my participation has been explained and consent to taking part in the experiment,relative,1,undefined,undefined,1,0,1,0,16,16,0,0,0,16,0,0,0,0,0,0,NA,0,16,0,0,0,NA,16,327,309,04/09/2018 11:23,A template containing a practice and an experimental phase,96,no,800,1280,15.72330189,yes,Exp_10_working.osexp,C:\Users\russe\Dropbox,no,mono,no,32,no,#ffffff,no,I confirm that my participation has been explained and consent to taking part in the experiment,NA,2,yes,800,oe,droid,0,15,8,C:/Users/russe/Dropbox/Exp_10/New folder/subject-9.csv,droid,Jazzy James,3.1.7,0,8,NA,1,NA,1,1,NA,8,474,NA,779,NA,470,687,NA,474,2,legacy,Male,1024,2,48000,-16,experiment,9,odd,droid,4996,NA,NA,19655,20132,10103,11355,NA,19656,19636,NA,NA,NA,NA,2354,NA,NA,20132,NA,10884,18947,NA,19656,Runtime for Android template,1,474,1,0.125,no,1280,0.50181345
100,100,26,433,433,#000000,no,1,droid,legacy,legacy,0,I confirm that my participation has been explained and consent to taking part in the experiment,relative,1,undefined,undefined,1,0,1,0,17,17,0,0,0,17,0,0,0,0,0,0,NA,0,17,0,0,0,NA,17,320,325,04/09/2018 11:23,A template containing a practice and an experimental phase,96,no,800,1280,15.72330189,yes,Exp_10_working.osexp,C:\Users\russe\Dropbox,no,mono,no,32,no,#ffffff,no,I confirm that my participation has been explained and consent to taking part in the experiment,NA,2,yes,800,ee,droid,1,15,8,C:/Users/russe/Dropbox/Exp_10/New folder/subject-9.csv,droid,Jazzy James,3.1.7,0,8,NA,1,NA,1,1,NA,8,392,NA,779,NA,470,687,NA,392,2,legacy,Male,1024,2,48000,-16,experiment,9,odd,droid,4996,NA,NA,20184,20580,10103,11355,NA,20186,19636,NA,NA,NA,NA,2354,NA,NA,20580,NA,10884,18947,NA,20186,Runtime for Android template,2,866,2,0.16667,no,1280,-0.33652408
100,100,26,416,416,#000000,no,1,droid,legacy,legacy,0,I confirm that my participation has been explained and consent to taking part in the experiment,relative,1,undefined,undefined,1,0,1,0,18,18,0,0,0,18,0,0,0,0,0,0,NA,0,18,0,0,0,NA,18,669,467,04/09/2018 11:23,A template containing a practice and an experimental phase,96,no,800,1280,15.72330189,yes,Exp_10_working.osexp,C:\Users\russe\Dropbox,no,mono,no,32,no,#ffffff,no,I confirm that my participation has been explained and consent to taking part in the experiment,NA,1,yes,800,ek,droid,2,15,16,C:/Users/russe/Dropbox/Exp_10/New folder/subject-9.csv,droid,Jazzy James,3.1.7,0,16,NA,1,NA,1,1,NA,16,382,NA,779,NA,470,687,NA,382,2,legacy,Male,1024,2,48000,-16,experiment,9,odd,droid,4996,NA,NA,20634,21020,10103,11355,NA,20635,19636,NA,NA,NA,NA,2354,NA,NA,21020,NA,10884,18947,NA,20636,Runtime for Android template,3,1248,3,0.08333,no,1280,-0.438760365
100,100,26,413.5,413.5,#000000,no,1,droid,legacy,legacy,0,I confirm that my participation has been explained and consent to taking part in the experiment,relative,1,undefined,undefined,1,0,1,0,19,19,0,0,0,19,0,0,0,0,0,0,NA,0,19,0,0,0,NA,19,717,115,04/09/2018 11:23,A template containing a practice and an experimental phase,96,no,800,1280,15.72330189,yes,Exp_10_working.osexp,C:\Users\russe\Dropbox,no,mono,no,32,no,#ffffff,no,I confirm that my participation has been explained and consent to taking part in the experiment,NA,1,yes,800,kc,droid,3,15,4,C:/Users/russe/Dropbox/Exp_10/New folder/subject-9.csv,droid,Jazzy James,3.1.7,0,4,NA,1,NA,1,1,NA,4,406,NA,779,NA,470,687,NA,406,2,legacy,Male,1024,2,48000,-16,experiment,9,odd,droid,4996,NA,NA,21074,21484,10103,11355,NA,21075,19636,NA,NA,NA,NA,2354,NA,NA,21484,NA,10884,18947,NA,21076,Runtime for Android template,4,1654,4,0.125,no,1280,-0.193393283
100,100,26,409.2,409.2,#000000,no,1,droid,legacy,legacy,0,I confirm that my participation has been explained and consent to taking part in the experiment,relative,1,undefined,undefined,1,0,1,0,20,20,0,0,0,20,0,0,0,0,0,0,NA,0,20,0,0,0,NA,20,935,576,04/09/2018 11:23,A template containing a practice and an experimental phase,96,no,800,1280,15.72330189,yes,Exp_10_working.osexp,C:\Users\russe\Dropbox,no,mono,no,32,no,#ffffff,no,I confirm that my participation has been explained and consent to taking part in the experiment,NA,1,yes,800,cl,droid,4,15,17,C:/Users/russe/Dropbox/Exp_10/New folder/subject-9.csv,droid,Jazzy James,3.1.7,0,17,NA,1,NA,1,1,NA,17,392,NA,779,NA,470,687,NA,392,2,legacy,Male,1024,2,48000,-16,experiment,9,odd,droid,4996,NA,NA,21536,21931,10103,11355,NA,21538,19636,NA,NA,NA,NA,2354,NA,NA,21932,NA,10884,18947,NA,21538,Runtime for Android template,5,2046,5,0.1,no,1280,-0.33652408
100,100,26,418.3333333,418.3333333,#000000,no,1,droid,legacy,legacy,0,I confirm that my participation has been explained and consent to taking part in the experiment,relative,1,undefined,undefined,1,0,1,0,21,21,0,0,0,21,0,0,0,0,0,0,NA,0,21,0,0,0,NA,21,256,729,04/09/2018 11:23,A template containing a practice and an experimental phase,96,no,800,1280,15.72330189,yes,Exp_10_working.osexp,C:\Users\russe\Dropbox,no,mono,no,32,no,#ffffff,no,I confirm that my participation has been explained and consent to taking part in the experiment,NA,1,yes,800,lm,droid,5,15,20,C:/Users/russe/Dropbox/Exp_10/New folder/subject-9.csv,droid,Jazzy James,3.1.7,0,20,NA,1,NA,1,1,NA,20,464,NA,779,NA,470,687,NA,464,2,legacy,Male,1024,2,48000,-16,experiment,9,odd,droid,4996,NA,NA,21992,22460,10103,11355,NA,21994,19636,NA,NA,NA,NA,2354,NA,NA,22460,NA,10884,18947,NA,21994,Runtime for Android template,6,2510,6,0.25,no,1280,0.399577165
85.71428571,85.71428571,26,417.2857143,417.2857143,#000000,no,1,droid,legacy,legacy,0,I confirm that my participation has been explained and consent to taking part in the experiment,relative,0,undefined,undefined,0,0,1,0,22,22,0,0,0,22,0,0,0,0,0,0,NA,0,22,0,0,0,NA,22,283,180,04/09/2018 11:23,A template containing a practice and an experimental phase,96,no,800,1280,15.72330189,yes,Exp_10_working.osexp,C:\Users\russe\Dropbox,no,mono,no,32,no,#ffffff,no,I confirm that my participation has been explained and consent to taking part in the experiment,NA,2,yes,800,me,droid,6,15,8,C:/Users/russe/Dropbox/Exp_10/New folder/subject-9.csv,droid,Jazzy James,3.1.7,0,2,NA,1,NA,1,1,NA,2,411,NA,779,NA,470,687,NA,411,2,legacy,Male,1024,2,48000,-16,experiment,9,odd,droid,4996,NA,NA,22517,22932,10103,11355,NA,22519,19636,NA,NA,NA,NA,2354,NA,NA,22932,NA,10884,18947,NA,22519,Runtime for Android template,6,2921,7,0.22222,no,1280,-0.142275141
87.5,87.5,26,417,417,#000000,no,1,droid,legacy,legacy,0,I confirm that my participation has been explained and consent to taking part in the experiment,relative,1,undefined,undefined,1,0,1,0,23,23,0,0,0,23,0,0,0,0,0,0,NA,0,23,0,0,0,NA,23,375,114,04/09/2018 11:23,A template containing a practice and an experimental phase,96,no,800,1280,15.72330189,yes,Exp_10_working.osexp,C:\Users\russe\Dropbox,no,mono,no,32,no,#ffffff,no,I confirm that my participation has been explained and consent to taking part in the experiment,NA,1,yes,800,ea,droid,7,15,2,C:/Users/russe/Dropbox/Exp_10/New folder/subject-9.csv,droid,Jazzy James,3.1.7,0,2,NA,1,NA,1,1,NA,2,415,NA,779,NA,470,687,NA,415,2,legacy,Male,1024,2,48000,-16,experiment,9,odd,droid,4996,NA,NA,22993,23412,10103,11355,NA,22995,19636,NA,NA,NA,NA,2354,NA,NA,23412,NA,10884,18947,NA,22995,Runtime for Android template,7,3336,8,0.08333,no,1280,-0.101380627
88.88888889,88.88888889,26,416,416,#000000,no,1,droid,legacy,legacy,0,I confirm that my participation has been explained and consent to taking part in the experiment,relative,1,undefined,undefined,1,0,1,0,24,24,0,0,0,24,0,0,0,0,0,0,NA,0,24,0,0,0,NA,24,819,708,04/09/2018 11:23,A template containing a practice and an experimental phase,96,no,800,1280,15.72330189,yes,Exp_10_working.osexp,C:\Users\russe\Dropbox,no,mono,no,32,no,#ffffff,no,I confirm that my participation has been explained and consent to taking part in the experiment,NA,2,yes,800,ao,droid,8,15,22,C:/Users/russe/Dropbox/Exp_10/New folder/subject-9.csv,droid,Jazzy James,3.1.7,0,22,NA,1,NA,1,1,NA,22,408,NA,779,NA,470,687,NA,408,2,legacy,Male,1024,2,48000,-16,experiment,9,odd,droid,4996,NA,NA,23472,23885,10103,11355,NA,23473,19636,NA,NA,NA,NA,2354,NA,NA,23885,NA,10884,18947,NA,23474,Runtime for Android template,8,3744,9,0.33333,no,1280,-0.172946026
90,90,26,413.1,413.1,#000000,no,1,droid,legacy,legacy,0,I confirm that my participation has been explained and consent to taking part in the experiment,relative,1,undefined,undefined,1,0,1,0,25,25,0,0,0,25,0,0,0,0,0,0,NA,0,25,0,0,0,NA,25,442,440,04/09/2018 11:23,A template containing a practice and an experimental phase,96,no,800,1280,15.72330189,yes,Exp_10_working.osexp,C:\Users\russe\Dropbox,no,mono,no,32,no,#ffffff,no,I confirm that my participation has been explained and consent to taking part in the experiment,NA,1,yes,800,oj,droid,9,15,15,C:/Users/russe/Dropbox/Exp_10/New folder/subject-9.csv,droid,Jazzy James,3.1.7,0,15,NA,1,NA,1,1,NA,15,387,NA,779,NA,470,687,NA,387,2,legacy,Male,1024,2,48000,-16,experiment,9,odd,droid,4996,NA,NA,23934,24324,10103,11355,NA,23935,19636,NA,NA,NA,NA,2354,NA,NA,24324,NA,10884,18947,NA,23935,Runtime for Android template,9,4131,10,0.0625,no,1280,-0.387642223
90.90909091,90.90909091,26,412.1818182,412.1818182,#000000,no,1,droid,legacy,legacy,0,I confirm that my participation has been explained and consent to taking part in the experiment,relative,1,undefined,undefined,1,0,1,0,26,26,0,0,0,26,0,0,0,0,0,0,NA,0,26,0,0,0,NA,26,519,672,04/09/2018 11:23,A template containing a practice and an experimental phase,96,no,800,1280,15.72330189,yes,Exp_10_working.osexp,C:\Users\russe\Dropbox,no,mono,no,32,no,#ffffff,no,I confirm that my participation has been explained and consent to taking part in the experiment,NA,1,yes,800,jn,droid,10,15,21,C:/Users/russe/Dropbox/Exp_10/New folder/subject-9.csv,droid,Jazzy James,3.1.7,0,21,NA,1,NA,1,1,NA,21,403,NA,779,NA,470,687,NA,403,2,legacy,Male,1024,2,48000,-16,experiment,9,odd,droid,4996,NA,NA,24373,24780,10103,11355,NA,24375,19636,NA,NA,NA,NA,2354,NA,NA,24780,NA,10884,18947,NA,24375,Runtime for Android template,10,4534,11,0.125,no,1280,-0.224064168
91.66666667,91.66666667,26,408.5833333,408.5833333,#000000,no,1,droid,legacy,legacy,0,I confirm that my participation has been explained and consent to taking part in the experiment,relative,1,undefined,undefined,1,0,1,0,27,27,0,0,0,27,0,0,0,0,0,0,NA,0,27,0,0,0,NA,27,969,311,04/09/2018 11:23,A template containing a practice and an experimental phase,96,no,800,1280,15.72330189,yes,Exp_10_working.osexp,C:\Users\russe\Dropbox,no,mono,no,32,no,#ffffff,no,I confirm that my participation has been explained and consent to taking part in the experiment,NA,4,yes,800,nh,droid,11,15,11,C:/Users/russe/Dropbox/Exp_10/New folder/subject-9.csv,droid,Jazzy James,3.1.7,0,11,NA,1,NA,1,1,NA,11,369,NA,779,NA,470,687,NA,369,2,legacy,Male,1024,2,48000,-16,experiment,9,odd,droid,4996,NA,NA,24871,25244,10103,11355,NA,24873,19636,NA,NA,NA,NA,2354,NA,NA,25244,NA,10884,18947,NA,24873,Runtime for Android template,11,4903,12,0.8,no,1280,-0.571667534
92.30769231,92.30769231,26,411.3076923,411.3076923,#000000,no,1,droid,legacy,legacy,0,I confirm that my participation has been explained and consent to taking part in the experiment,relative,1,undefined,undefined,1,0,1,0,28,28,0,0,0,28,0,0,0,0,0,0,NA,0,28,0,0,0,NA,28,342,442,04/09/2018 11:23,A template containing a practice and an experimental phase,96,no,800,1280,15.72330189,yes,Exp_10_working.osexp,C:\Users\russe\Dropbox,no,mono,no,32,no,#ffffff,no,I confirm that my participation has been explained and consent to taking part in the experiment,NA,1,yes,800,hi,droid,12,15,14,C:/Users/russe/Dropbox/Exp_10/New folder/subject-9.csv,droid,Jazzy James,3.1.7,0,14,NA,1,NA,1,1,NA,14,444,NA,779,NA,470,687,NA,444,2,legacy,Male,1024,2,48000,-16,experiment,9,odd,droid,4996,NA,NA,25300,25748,10103,11355,NA,25302,19636,NA,NA,NA,NA,2354,NA,NA,25748,NA,10884,18947,NA,25302,Runtime for Android template,12,5347,13,0.07692,no,1280,0.195104597
92.85714286,92.85714286,26,415.0714286,415.0714286,#000000,no,1,droid,legacy,legacy,0,I confirm that my participation has been explained and consent to taking part in the experiment,relative,1,undefined,undefined,1,0,1,0,29,29,0,0,0,29,0,0,0,0,0,0,NA,0,29,0,0,0,NA,29,760,118,04/09/2018 11:23,A template containing a practice and an experimental phase,96,no,800,1280,15.72330189,yes,Exp_10_working.osexp,C:\Users\russe\Dropbox,no,mono,no,32,no,#ffffff,no,I confirm that my participation has been explained and consent to taking part in the experiment,NA,1,yes,800,ic,droid,13,15,4,C:/Users/russe/Dropbox/Exp_10/New folder/subject-9.csv,droid,Jazzy James,3.1.7,0,4,NA,1,NA,1,1,NA,4,464,NA,779,NA,470,687,NA,464,2,legacy,Male,1024,2,48000,-16,experiment,9,odd,droid,4996,NA,NA,25832,26300,10103,11355,NA,25834,19636,NA,NA,NA,NA,2354,NA,NA,26300,NA,10884,18947,NA,25834,Runtime for Android template,13,5811,14,1,no,1280,0.399577165
93.33333333,93.33333333,26,414.1333333,414.1333333,#000000,no,1,droid,legacy,legacy,0,I confirm that my participation has been explained and consent to taking part in the experiment,relative,1,undefined,undefined,1,0,1,0,30,30,0,0,0,30,0,0,0,0,0,0,NA,0,30,0,0,0,NA,30,776,307,04/09/2018 11:23,A template containing a practice and an experimental phase,96,no,800,1280,15.72330189,yes,Exp_10_working.osexp,C:\Users\russe\Dropbox,no,mono,no,32,no,#ffffff,no,I confirm that my participation has been explained and consent to taking part in the experiment,NA,1,yes,800,cg,droid,14,15,10,C:/Users/russe/Dropbox/Exp_10/New folder/subject-9.csv,droid,Jazzy James,3.1.7,0,10,NA,1,NA,1,1,NA,10,401,NA,779,NA,470,687,NA,401,2,legacy,Male,1024,2,48000,-16,experiment,9,odd,droid,4996,NA,NA,26376,26780,10103,11355,NA,26377,19636,NA,NA,NA,NA,2354,NA,NA,26780,NA,10884,18947,NA,26377,Runtime for Android template,14,6212,15,0.1,no,1280,-0.244511425
93.75,93.75,26,410.1875,410.1875,#000000,no,1,droid,legacy,legacy,0,I confirm that my participation has been explained and consent to taking part in the experiment,relative,1,undefined,undefined,1,0,1,0,31,31,0,0,0,31,0,0,0,0,0,0,NA,0,31,0,0,0,NA,31,936,479,04/09/2018 11:23,A template containing a practice and an experimental phase,96,no,800,1280,15.72330189,yes,Exp_10_working.osexp,C:\Users\russe\Dropbox,no,mono,no,32,no,#ffffff,no,I confirm that my participation has been explained and consent to taking part in the experiment,NA,1,yes,800,gl,droid,15,15,17,C:/Users/russe/Dropbox/Exp_10/New folder/subject-9.csv,droid,Jazzy James,3.1.7,0,17,NA,1,NA,1,1,NA,17,351,NA,779,NA,470,687,NA,351,2,legacy,Male,1024,2,48000,-16,experiment,9,odd,droid,4996,NA,NA,26842,27196,10103,11355,NA,26843,19636,NA,NA,NA,NA,2354,NA,NA,27196,NA,10884,18947,NA,26843,Runtime for Android template,15,6563,16,0.2,no,1280,-0.755692846
94.11764706,94.11764706,26,429.3529412,429.3529412,#000000,no,1,droid,legacy,legacy,0,I confirm that my participation has been explained and consent to taking part in the experiment,relative,1,undefined,undefined,1,0,1,0,32,32,0,0,0,32,0,0,0,0,0,0,NA,0,32,0,0,0,NA,32,797,155,04/09/2018 11:23,A template containing a practice and an experimental phase,96,no,800,1280,15.72330189,yes,Exp_10_working.osexp,C:\Users\russe\Dropbox,no,mono,no,32,no,#ffffff,no,I confirm that my participation has been explained and consent to taking part in the experiment,NA,1,yes,800,lc,droid,16,15,4,C:/Users/russe/Dropbox/Exp_10/New folder/subject-9.csv,droid,Jazzy James,3.1.7,0,4,NA,1,NA,1,1,NA,4,736,NA,779,NA,470,687,NA,736,2,legacy,Male,1024,2,48000,-16,experiment,9,odd,droid,4996,NA,NA,27273,28016,10103,11355,NA,27274,19636,NA,NA,NA,NA,2354,NA,NA,28016,NA,10884,18947,NA,27274,Runtime for Android template,16,7299,17,0.25,no,1280,3.180404094
94.44444444,94.44444444,26,430.1111111,430.1111111,#000000,no,1,droid,legacy,legacy,0,I confirm that my participation has been explained and consent to taking part in the experiment,relative,1,undefined,undefined,1,0,1,0,33,33,0,0,0,33,0,0,0,0,0,0,NA,0,33,0,0,0,NA,33,753,695,04/09/2018 11:23,A template containing a practice and an experimental phase,96,no,800,1280,15.72330189,yes,Exp_10_working.osexp,C:\Users\russe\Dropbox,no,mono,no,32,no,#ffffff,no,I confirm that my participation has been explained and consent to taking part in the experiment,NA,3,yes,800,co,droid,17,15,22,C:/Users/russe/Dropbox/Exp_10/New folder/subject-9.csv,droid,Jazzy James,3.1.7,0,22,NA,1,NA,1,1,NA,22,443,NA,779,NA,470,687,NA,443,2,legacy,Male,1024,2,48000,-16,experiment,9,odd,droid,4996,NA,NA,28077,28524,10103,11355,NA,28079,19636,NA,NA,NA,NA,2354,NA,NA,28524,NA,10884,18947,NA,28079,Runtime for Android template,17,7742,18,0.3,no,1280,0.184880969
94.73684211,94.73684211,26,429.1052632,429.1052632,#000000,no,1,droid,legacy,legacy,0,I confirm that my participation has been explained and consent to taking part in the experiment,relative,1,undefined,undefined,1,0,1,0,34,34,0,0,0,34,0,0,0,0,0,0,NA,0,34,0,0,0,NA,34,977,338,04/09/2018 11:23,A template containing a practice and an experimental phase,96,no,800,1280,15.72330189,yes,Exp_10_working.osexp,C:\Users\russe\Dropbox,no,mono,no,32,no,#ffffff,no,I confirm that my participation has been explained and consent to taking part in the experiment,NA,1,yes,800,oh,droid,18,15,11,C:/Users/russe/Dropbox/Exp_10/New folder/subject-9.csv,droid,Jazzy James,3.1.7,0,11,NA,1,NA,1,1,NA,11,411,NA,779,NA,470,687,NA,411,2,legacy,Male,1024,2,48000,-16,experiment,9,odd,droid,4996,NA,NA,28597,29012,10103,11355,NA,28599,19636,NA,NA,NA,NA,2354,NA,NA,29012,NA,10884,18947,NA,28599,Runtime for Android template,18,8153,19,0.0625,no,1280,-0.142275141
90,90,26,426.25,426.25,#000000,no,1,droid,legacy,legacy,0,I confirm that my participation has been explained and consent to taking part in the experiment,relative,0,undefined,undefined,0,0,1,0,35,35,0,0,0,35,0,0,0,0,0,0,NA,0,35,0,0,0,NA,35,375,511,04/09/2018 11:23,A template containing a practice and an experimental phase,96,no,800,1280,15.72330189,yes,Exp_10_working.osexp,C:\Users\russe\Dropbox,no,mono,no,32,no,#ffffff,no,I confirm that my participation has been explained and consent to taking part in the experiment,NA,2,yes,800,hj,droid,19,15,15,C:/Users/russe/Dropbox/Exp_10/New folder/subject-9.csv,droid,Jazzy James,3.1.7,0,14,NA,1,NA,1,1,NA,14,372,NA,779,NA,470,687,NA,372,2,legacy,Male,1024,2,48000,-16,experiment,9,odd,droid,4996,NA,NA,29061,29436,10103,11355,NA,29062,19636,NA,NA,NA,NA,2354,NA,NA,29436,NA,10884,18947,NA,29062,Runtime for Android template,18,8525,20,0.15385,no,1280,-0.540996649
90.47619048,90.47619048,26,424.7142857,424.7142857,#000000,no,1,droid,legacy,legacy,0,I confirm that my participation has been explained and consent to taking part in the experiment,relative,1,undefined,undefined,1,0,1,0,36,36,0,0,0,36,0,0,0,0,0,0,NA,0,36,0,0,0,NA,36,690,723,04/09/2018 11:23,A template containing a practice and an experimental phase,96,no,800,1280,15.72330189,yes,Exp_10_working.osexp,C:\Users\russe\Dropbox,no,mono,no,32,no,#ffffff,no,I confirm that my participation has been explained and consent to taking part in the experiment,NA,2,yes,800,jo,droid,20,15,22,C:/Users/russe/Dropbox/Exp_10/New folder/subject-9.csv,droid,Jazzy James,3.1.7,0,22,NA,1,NA,1,1,NA,22,394,NA,779,NA,470,687,NA,394,2,legacy,Male,1024,2,48000,-16,experiment,9,odd,droid,4996,NA,NA,29494,29892,10103,11355,NA,29496,19636,NA,NA,NA,NA,2354,NA,NA,29892,NA,10884,18947,NA,29496,Runtime for Android template,19,8919,21,0.25,no,1280,-0.316076824
90.90909091,90.90909091,26,424.2727273,424.2727273,#000000,no,1,droid,legacy,legacy,0,I confirm that my participation has been explained and consent to taking part in the experiment,relative,1,undefined,undefined,1,0,1,0,37,37,0,0,0,37,0,0,0,0,0,0,NA,0,37,0,0,0,NA,37,295,295,04/09/2018 11:23,A template containing a practice and an experimental phase,96,no,800,1280,15.72330189,yes,Exp_10_working.osexp,C:\Users\russe\Dropbox,no,mono,no,32,no,#ffffff,no,I confirm that my participation has been explained and consent to taking part in the experiment,NA,2,yes,800,oe,droid,21,15,8,C:/Users/russe/Dropbox/Exp_10/New folder/subject-9.csv,droid,Jazzy James,3.1.7,0,8,NA,1,NA,1,1,NA,8,415,NA,779,NA,470,687,NA,415,2,legacy,Male,1024,2,48000,-16,experiment,9,odd,droid,4996,NA,NA,29945,30364,10103,11355,NA,29946,19636,NA,NA,NA,NA,2354,NA,NA,30364,NA,10884,18947,NA,29947,Runtime for Android template,20,9334,22,0.125,no,1280,-0.101380627
91.30434783,91.30434783,26,421.5652174,421.5652174,#000000,no,1,droid,legacy,legacy,0,I confirm that my participation has been explained and consent to taking part in the experiment,relative,1,undefined,undefined,1,0,1,0,38,38,0,0,0,38,0,0,0,0,0,0,NA,0,38,0,0,0,NA,38,506,301,04/09/2018 11:23,A template containing a practice and an experimental phase,96,no,800,1280,15.72330189,yes,Exp_10_working.osexp,C:\Users\russe\Dropbox,no,mono,no,32,no,#ffffff,no,I confirm that my participation has been explained and consent to taking part in the experiment,NA,1,yes,800,ef,droid,22,15,9,C:/Users/russe/Dropbox/Exp_10/New folder/subject-9.csv,droid,Jazzy James,3.1.7,0,9,NA,1,NA,1,1,NA,9,362,NA,779,NA,470,687,NA,362,2,legacy,Male,1024,2,48000,-16,experiment,9,odd,droid,4996,NA,NA,30438,30804,10103,11355,NA,30440,19636,NA,NA,NA,NA,2354,NA,NA,30804,NA,10884,18947,NA,30440,Runtime for Android template,21,9696,23,0.08333,no,1280,-0.643232933
91.66666667,91.66666667,26,419.5,419.5,#000000,no,1,droid,legacy,legacy,0,I confirm that my participation has been explained and consent to taking part in the experiment,relative,1,undefined,undefined,1,0,1,0,39,39,0,0,0,39,0,0,0,0,0,0,NA,0,39,0,0,0,NA,39,822,697,04/09/2018 11:23,A template containing a practice and an experimental phase,96,no,800,1280,15.72330189,yes,Exp_10_working.osexp,C:\Users\russe\Dropbox,no,mono,no,32,no,#ffffff,no,I confirm that my participation has been explained and consent to taking part in the experiment,NA,1,yes,800,fo,droid,23,15,22,C:/Users/russe/Dropbox/Exp_10/New folder/subject-9.csv,droid,Jazzy James,3.1.7,0,22,NA,1,NA,1,1,NA,22,372,NA,779,NA,470,687,NA,372,2,legacy,Male,1024,2,48000,-16,experiment,9,odd,droid,4996,NA,NA,30868,31244,10103,11355,NA,30870,19636,NA,NA,NA,NA,2354,NA,NA,31244,NA,10884,18947,NA,30870,Runtime for Android template,22,10068,24,0.33333,no,1280,-0.540996649
92,92,26,419.64,419.64,#000000,no,1,droid,legacy,legacy,0,I confirm that my participation has been explained and consent to taking part in the experiment,relative,1,undefined,undefined,1,0,1,0,40,40,0,0,0,40,0,0,0,0,0,0,NA,0,40,0,0,0,NA,40,343,697,04/09/2018 11:23,A template containing a practice and an experimental phase,96,no,800,1280,15.72330189,yes,Exp_10_working.osexp,C:\Users\russe\Dropbox,no,mono,no,32,no,#ffffff,no,I confirm that my participation has been explained and consent to taking part in the experiment,NA,1,yes,800,om,droid,24,15,20,C:/Users/russe/Dropbox/Exp_10/New folder/subject-9.csv,droid,Jazzy James,3.1.7,0,20,NA,1,NA,1,1,NA,20,423,NA,779,NA,470,687,NA,423,2,legacy,Male,1024,2,48000,-16,experiment,9,odd,droid,4996,NA,NA,31329,31756,10103,11355,NA,31331,19636,NA,NA,NA,NA,2354,NA,NA,31756,NA,10884,18947,NA,31331,Runtime for Android template,23,10491,25,0.0625,no,1280,-0.0195916
92.30769231,92.30769231,26,423.9615385,423.9615385,#000000,no,1,droid,legacy,legacy,0,I confirm that my participation has been explained and consent to taking part in the experiment,relative,1,undefined,undefined,1,0,1,0,41,41,0,0,0,41,0,0,0,0,0,0,NA,0,41,0,0,0,NA,41,556,155,04/09/2018 11:23,A template containing a practice and an experimental phase,96,no,800,1280,15.72330189,yes,Exp_10_working.osexp,C:\Users\russe\Dropbox,no,mono,no,32,no,#ffffff,no,I confirm that my participation has been explained and consent to taking part in the experiment,NA,1,yes,800,mb,droid,25,15,3,C:/Users/russe/Dropbox/Exp_10/New folder/subject-9.csv,droid,Jazzy James,3.1.7,0,3,NA,1,NA,1,1,NA,3,532,NA,779,NA,470,687,NA,532,2,legacy,Male,1024,2,48000,-16,experiment,9,odd,droid,4996,NA,NA,31812,32348,10103,11355,NA,31814,19636,NA,NA,NA,NA,2354,NA,NA,32348,NA,10884,18947,NA,31814,Runtime for Android template,24,11023,26,0.11111,no,1280,1.094783898
92.59259259,92.59259259,26,421.7777778,421.7777778,#000000,no,1,droid,legacy,legacy,0,I confirm that my participation has been explained and consent to taking part in the experiment,relative,1,undefined,undefined,1,0,1,0,42,42,0,0,0,42,0,0,0,0,0,0,NA,0,42,0,0,0,NA,42,958,276,04/09/2018 11:23,A template containing a practice and an experimental phase,96,no,800,1280,15.72330189,yes,Exp_10_working.osexp,C:\Users\russe\Dropbox,no,mono,no,32,no,#ffffff,no,I confirm that my participation has been explained and consent to taking part in the experiment,NA,1,yes,800,bh,droid,26,15,11,C:/Users/russe/Dropbox/Exp_10/New folder/subject-9.csv,droid,Jazzy James,3.1.7,0,11,NA,1,NA,1,1,NA,11,365,NA,779,NA,470,687,NA,365,2,legacy,Male,1024,2,48000,-16,experiment,9,odd,droid,4996,NA,NA,32404,32772,10103,11355,NA,32405,19636,NA,NA,NA,NA,2354,NA,NA,32772,NA,10884,18947,NA,32405,Runtime for Android template,25,11388,27,0.125,no,1280,-0.612562048
92.85714286,92.85714286,26,421.4285714,421.4285714,#000000,no,1,droid,legacy,legacy,0,I confirm that my participation has been explained and consent to taking part in the experiment,relative,1,undefined,undefined,1,0,1,0,43,43,0,0,0,43,0,0,0,0,0,0,NA,0,43,0,0,0,NA,43,998,301,04/09/2018 11:23,A template containing a practice and an experimental phase,96,no,800,1280,15.72330189,yes,Exp_10_working.osexp,C:\Users\russe\Dropbox,no,mono,no,32,no,#ffffff,no,I confirm that my participation has been explained and consent to taking part in the experiment,NA,1,yes,800,hh,droid,27,15,11,C:/Users/russe/Dropbox/Exp_10/New folder/subject-9.csv,droid,Jazzy James,3.1.7,0,11,NA,1,NA,1,1,NA,11,412,NA,779,NA,470,687,NA,412,2,legacy,Male,1024,2,48000,-16,experiment,9,odd,droid,4996,NA,NA,32829,33244,10103,11355,NA,32830,19636,NA,NA,NA,NA,2354,NA,NA,33244,NA,10884,18947,NA,32830,Runtime for Android template,26,11800,28,0.07692,no,1280,-0.132051512
93.10344828,93.10344828,26,420.862069,420.862069,#000000,no,1,droid,legacy,legacy,0,I confirm that my participation has been explained and consent to taking part in the experiment,relative,1,undefined,undefined,1,0,1,0,44,44,0,0,0,44,0,0,0,0,0,0,NA,0,44,0,0,0,NA,44,707,11,04/09/2018 11:23,A template containing a practice and an experimental phase,96,no,800,1280,15.72330189,yes,Exp_10_working.osexp,C:\Users\russe\Dropbox,no,mono,no,32,no,#ffffff,no,I confirm that my participation has been explained and consent to taking part in the experiment,NA,1,yes,800,hc,droid,28,15,4,C:/Users/russe/Dropbox/Exp_10/New folder/subject-9.csv,droid,Jazzy James,3.1.7,0,4,NA,1,NA,1,1,NA,4,405,NA,779,NA,470,687,NA,405,2,legacy,Male,1024,2,48000,-16,experiment,9,odd,droid,4996,NA,NA,33355,33764,10103,11355,NA,33357,19636,NA,NA,NA,NA,2354,NA,NA,33764,NA,10884,18947,NA,33357,Runtime for Android template,27,12205,29,0.07692,no,1280,-0.203616911
93.33333333,93.33333333,26,420.2333333,420.2333333,#000000,no,1,droid,legacy,legacy,0,I confirm that my participation has been explained and consent to taking part in the experiment,relative,1,undefined,undefined,1,0,1,0,45,45,0,0,0,45,0,0,0,0,0,0,NA,0,45,0,0,0,NA,45,308,284,04/09/2018 11:23,A template containing a practice and an experimental phase,96,no,800,1280,15.72330189,yes,Exp_10_working.osexp,C:\Users\russe\Dropbox,no,mono,no,32,no,#ffffff,no,I confirm that my participation has been explained and consent to taking part in the experiment,NA,1,yes,800,ce,droid,29,15,8,C:/Users/russe/Dropbox/Exp_10/New folder/subject-9.csv,droid,Jazzy James,3.1.7,0,8,NA,1,NA,1,1,NA,8,402,NA,779,NA,470,687,NA,402,2,legacy,Male,1024,2,48000,-16,experiment,9,odd,droid,4996,NA,NA,33822,34228,10103,11355,NA,33824,19636,NA,NA,NA,NA,2354,NA,NA,34228,NA,10884,18947,NA,33824,Runtime for Android template,28,12607,30,0.1,no,1280,-0.234287796
93.5483871,93.5483871,26,421.7419355,421.7419355,#000000,no,1,droid,legacy,legacy,0,I confirm that my participation has been explained and consent to taking part in the experiment,relative,1,undefined,undefined,1,0,1,0,46,46,0,0,0,46,0,0,0,0,0,0,NA,0,46,0,0,0,NA,46,722,44,04/09/2018 11:23,A template containing a practice and an experimental phase,96,no,800,1280,15.72330189,yes,Exp_10_working.osexp,C:\Users\russe\Dropbox,no,mono,no,32,no,#ffffff,no,I confirm that my participation has been explained and consent to taking part in the experiment,NA,1,yes,800,ec,droid,30,15,4,C:/Users/russe/Dropbox/Exp_10/New folder/subject-9.csv,droid,Jazzy James,3.1.7,0,4,NA,1,NA,1,1,NA,4,467,NA,779,NA,470,687,NA,467,2,legacy,Male,1024,2,48000,-16,experiment,9,odd,droid,4996,NA,NA,34286,34756,10103,11355,NA,34287,19636,NA,NA,NA,NA,2354,NA,NA,34756,NA,10884,18947,NA,34287,Runtime for Android template,29,13074,31,0.08333,no,1280,0.430248051
93.75,93.75,26,421.6875,421.6875,#000000,no,1,droid,legacy,legacy,0,I confirm that my participation has been explained and consent to taking part in the experiment,relative,1,undefined,undefined,1,0,1,0,47,47,0,0,0,47,0,0,0,0,0,0,NA,0,47,0,0,0,NA,47,745,107,04/09/2018 11:23,A template containing a practice and an experimental phase,96,no,800,1280,15.72330189,yes,Exp_10_working.osexp,C:\Users\russe\Dropbox,no,mono,no,32,no,#ffffff,no,I confirm that my participation has been explained and consent to taking part in the experiment,NA,1,yes,800,cc,droid,31,15,4,C:/Users/russe/Dropbox/Exp_10/New folder/subject-9.csv,droid,Jazzy James,3.1.7,0,4,NA,1,NA,1,1,NA,4,420,NA,779,NA,470,687,NA,420,2,legacy,Male,1024,2,48000,-16,experiment,9,odd,droid,4996,NA,NA,34812,35236,10103,11355,NA,34814,19636,NA,NA,NA,NA,2354,NA,NA,35236,NA,10884,18947,NA,34814,Runtime for Android template,30,13494,32,0.1,no,1280,-0.050262485
93.93939394,93.93939394,26,423.4545455,423.4545455,#000000,no,1,droid,legacy,legacy,0,I confirm that my participation has been explained and consent to taking part in the experiment,relative,1,undefined,undefined,1,0,1,0,48,48,0,0,0,48,0,0,0,0,0,0,NA,0,48,0,0,0,NA,48,1020,298,04/09/2018 11:23,A template containing a practice and an experimental phase,96,no,800,1280,15.72330189,yes,Exp_10_working.osexp,C:\Users\russe\Dropbox,no,mono,no,32,no,#ffffff,no,I confirm that my participation has been explained and consent to taking part in the experiment,NA,1,yes,800,ch,droid,32,15,11,C:/Users/russe/Dropbox/Exp_10/New folder/subject-9.csv,droid,Jazzy James,3.1.7,0,11,NA,1,NA,1,1,NA,11,480,NA,779,NA,470,687,NA,480,2,legacy,Male,1024,2,48000,-16,experiment,9,odd,droid,4996,NA,NA,35297,35780,10103,11355,NA,35298,19636,NA,NA,NA,NA,2354,NA,NA,35780,NA,10884,18947,NA,35298,Runtime for Android template,31,13974,33,0.1,no,1280,0.56315522
94.11764706,94.11764706,26,424.9705882,424.9705882,#000000,no,1,droid,legacy,legacy,0,I confirm that my participation has been explained and consent to taking part in the experiment,relative,1,undefined,undefined,1,0,1,0,49,49,0,0,0,49,0,0,0,0,0,0,NA,0,49,0,0,0,NA,49,256,347,04/09/2018 11:23,A template containing a practice and an experimental phase,96,no,800,1280,15.72330189,yes,Exp_10_working.osexp,C:\Users\russe\Dropbox,no,mono,no,32,no,#ffffff,no,I confirm that my participation has been explained and consent to taking part in the experiment,NA,1,yes,800,he,droid,33,15,8,C:/Users/russe/Dropbox/Exp_10/New folder/subject-9.csv,droid,Jazzy James,3.1.7,0,8,NA,1,NA,1,1,NA,8,475,NA,779,NA,470,687,NA,475,2,legacy,Male,1024,2,48000,-16,experiment,9,odd,droid,4996,NA,NA,35830,36308,10103,11355,NA,35831,19636,NA,NA,NA,NA,2354,NA,NA,36308,NA,10884,18947,NA,35831,Runtime for Android template,32,14449,34,0.07692,no,1280,0.512037078
94.28571429,94.28571429,26,425.2857143,425.2857143,#000000,no,1,droid,legacy,legacy,0,I confirm that my participation has been explained and consent to taking part in the experiment,relative,1,undefined,undefined,1,0,1,0,50,50,0,0,0,50,0,0,0,0,0,0,NA,0,50,0,0,0,NA,50,1048,691,04/09/2018 11:23,A template containing a practice and an experimental phase,96,no,800,1280,15.72330189,yes,Exp_10_working.osexp,C:\Users\russe\Dropbox,no,mono,no,32,no,#ffffff,no,I confirm that my participation has been explained and consent to taking part in the experiment,NA,1,yes,800,ep,droid,34,15,23,C:/Users/russe/Dropbox/Exp_10/New folder/subject-9.csv,droid,Jazzy James,3.1.7,0,23,NA,1,NA,1,1,NA,23,436,NA,779,NA,470,687,NA,436,2,legacy,Male,1024,2,48000,-16,experiment,9,odd,droid,4996,NA,NA,36388,36828,10103,11355,NA,36390,19636,NA,NA,NA,NA,2354,NA,NA,36828,NA,10884,18947,NA,36390,Runtime for Android template,33,14885,35,0.08333,no,1280,0.11331557
94.44444444,94.44444444,26,427.3888889,427.3888889,#000000,no,1,droid,legacy,legacy,0,I confirm that my participation has been explained and consent to taking part in the experiment,relative,1,undefined,undefined,1,0,1,0,51,51,0,0,0,51,0,0,0,0,0,0,NA,0,51,0,0,0,NA,51,558,346,04/09/2018 11:23,A template containing a practice and an experimental phase,96,no,800,1280,15.72330189,yes,Exp_10_working.osexp,C:\Users\russe\Dropbox,no,mono,no,32,no,#ffffff,no,I confirm that my participation has been explained and consent to taking part in the experiment,NA,1,yes,800,pf,droid,35,15,9,C:/Users/russe/Dropbox/Exp_10/New folder/subject-9.csv,droid,Jazzy James,3.1.7,0,9,NA,1,NA,1,1,NA,9,501,NA,779,NA,470,687,NA,501,2,legacy,Male,1024,2,48000,-16,experiment,9,odd,droid,4996,NA,NA,36899,37404,10103,11355,NA,36901,19636,NA,NA,NA,NA,2354,NA,NA,37404,NA,10884,18947,NA,36901,Runtime for Android template,34,15386,36,0.2,no,1280,0.777851417
94.59459459,94.59459459,26,428.6756757,428.6756757,#000000,no,1,droid,legacy,legacy,0,I confirm that my participation has been explained and consent to taking part in the experiment,relative,1,undefined,undefined,1,0,1,0,52,52,0,0,0,52,0,0,0,0,0,0,NA,0,52,0,0,0,NA,52,301,231,04/09/2018 11:23,A template containing a practice and an experimental phase,96,no,800,1280,15.72330189,yes,Exp_10_working.osexp,C:\Users\russe\Dropbox,no,mono,no,32,no,#ffffff,no,I confirm that my participation has been explained and consent to taking part in the experiment,NA,1,yes,800,fe,droid,36,15,8,C:/Users/russe/Dropbox/Exp_10/New folder/subject-9.csv,droid,Jazzy James,3.1.7,0,8,NA,1,NA,1,1,NA,8,475,NA,779,NA,470,687,NA,475,2,legacy,Male,1024,2,48000,-16,experiment,9,odd,droid,4996,NA,NA,37477,37956,10103,11355,NA,37479,19636,NA,NA,NA,NA,2354,NA,NA,37956,NA,10884,18947,NA,37479,Runtime for Android template,35,15861,37,0.33333,no,1280,0.512037078
94.73684211,94.73684211,26,429.2368421,429.2368421,#000000,no,1,droid,legacy,legacy,0,I confirm that my participation has been explained and consent to taking part in the experiment,relative,1,undefined,undefined,1,0,1,0,53,53,0,0,0,53,0,0,0,0,0,0,NA,0,53,0,0,0,NA,53,976,283,04/09/2018 11:23,A template containing a practice and an experimental phase,96,no,800,1280,15.72330189,yes,Exp_10_working.osexp,C:\Users\russe\Dropbox,no,mono,no,32,no,#ffffff,no,I confirm that my participation has been explained and consent to taking part in the experiment,NA,1,yes,800,eh,droid,37,15,11,C:/Users/russe/Dropbox/Exp_10/New folder/subject-9.csv,droid,Jazzy James,3.1.7,0,11,NA,1,NA,1,1,NA,11,450,NA,779,NA,470,687,NA,450,2,legacy,Male,1024,2,48000,-16,experiment,9,odd,droid,4996,NA,NA,38071,38524,10103,11355,NA,38072,19636,NA,NA,NA,NA,2354,NA,NA,38524,NA,10884,18947,NA,38072,Runtime for Android template,36,16311,38,0.08333,no,1280,0.256446368
92.30769231,92.30769231,26,429.4102564,429.4102564,#000000,no,1,droid,legacy,legacy,0,I confirm that my participation has been explained and consent to taking part in the experiment,relative,0,undefined,undefined,0,0,1,0,54,54,0,0,0,54,0,0,0,0,0,0,NA,0,54,0,0,0,NA,54,310,588,04/09/2018 11:23,A template containing a practice and an experimental phase,96,no,800,1280,15.72330189,yes,Exp_10_working.osexp,C:\Users\russe\Dropbox,no,mono,no,32,no,#ffffff,no,I confirm that my participation has been explained and consent to taking part in the experiment,NA,1,yes,800,hm,droid,38,15,20,C:/Users/russe/Dropbox/Exp_10/New folder/subject-9.csv,droid,Jazzy James,3.1.7,0,14,NA,1,NA,1,1,NA,14,436,NA,779,NA,470,687,NA,436,2,legacy,Male,1024,2,48000,-16,experiment,9,odd,droid,4996,NA,NA,38580,39020,10103,11355,NA,38582,19636,NA,NA,NA,NA,2354,NA,NA,39020,NA,10884,18947,NA,38582,Runtime for Android template,36,16747,39,0.07692,no,1280,0.11331557
92.5,92.5,26,428.75,428.75,#000000,no,1,droid,legacy,legacy,0,I confirm that my participation has been explained and consent to taking part in the experiment,relative,1,undefined,undefined,1,0,1,0,55,55,0,0,0,55,0,0,0,0,0,0,NA,0,55,0,0,0,NA,55,528,287,04/09/2018 11:23,A template containing a practice and an experimental phase,96,no,800,1280,15.72330189,yes,Exp_10_working.osexp,C:\Users\russe\Dropbox,no,mono,no,32,no,#ffffff,no,I confirm that my participation has been explained and consent to taking part in the experiment,NA,1,yes,800,mf,droid,39,15,9,C:/Users/russe/Dropbox/Exp_10/New folder/subject-9.csv,droid,Jazzy James,3.1.7,0,9,NA,1,NA,1,1,NA,9,403,NA,779,NA,470,687,NA,403,2,legacy,Male,1024,2,48000,-16,experiment,9,odd,droid,4996,NA,NA,39197,39604,10103,11355,NA,39199,19636,NA,NA,NA,NA,2354,NA,NA,39604,NA,10884,18947,NA,39199,Runtime for Android template,37,17150,40,0.11111,no,1280,-0.224064168
90.24390244,90.24390244,26,428.5121951,428.5121951,#000000,no,1,droid,legacy,legacy,0,I confirm that my participation has been explained and consent to taking part in the experiment,relative,0,undefined,undefined,0,0,1,0,56,56,0,0,0,56,0,0,0,0,0,0,NA,0,56,0,0,0,NA,56,419,587,04/09/2018 11:23,A template containing a practice and an experimental phase,96,no,800,1280,15.72330189,yes,Exp_10_working.osexp,C:\Users\russe\Dropbox,no,mono,no,32,no,#ffffff,no,I confirm that my participation has been explained and consent to taking part in the experiment,NA,1,yes,800,fm,droid,40,15,20,C:/Users/russe/Dropbox/Exp_10/New folder/subject-9.csv,droid,Jazzy James,3.1.7,0,14,NA,1,NA,1,1,NA,14,419,NA,779,NA,470,687,NA,419,2,legacy,Male,1024,2,48000,-16,experiment,9,odd,droid,4996,NA,NA,39661,40085,10103,11355,NA,39663,19636,NA,NA,NA,NA,2354,NA,NA,40085,NA,10884,18947,NA,39663,Runtime for Android template,37,17569,41,0.33333,no,1280,-0.060486113
90.47619048,90.47619048,26,428.9285714,428.9285714,#000000,no,1,droid,legacy,legacy,0,I confirm that my participation has been explained and consent to taking part in the experiment,relative,1,undefined,undefined,1,0,1,0,57,57,0,0,0,57,0,0,0,0,0,0,NA,0,57,0,0,0,NA,57,530,615,04/09/2018 11:23,A template containing a practice and an experimental phase,96,no,800,1280,15.72330189,yes,Exp_10_working.osexp,C:\Users\russe\Dropbox,no,mono,no,32,no,#ffffff,no,I confirm that my participation has been explained and consent to taking part in the experiment,NA,1,yes,800,mn,droid,41,15,21,C:/Users/russe/Dropbox/Exp_10/New folder/subject-9.csv,droid,Jazzy James,3.1.7,0,21,NA,1,NA,1,1,NA,21,446,NA,779,NA,470,687,NA,446,2,legacy,Male,1024,2,48000,-16,experiment,9,odd,droid,4996,NA,NA,40138,40588,10103,11355,NA,40140,19636,NA,NA,NA,NA,2354,NA,NA,40588,NA,10884,18947,NA,40140,Runtime for Android template,38,18015,42,0.11111,no,1280,0.215551854
88.37209302,88.37209302,26,432.0465116,432.0465116,#000000,no,1,droid,legacy,legacy,0,I confirm that my participation has been explained and consent to taking part in the experiment,relative,0,undefined,undefined,0,0,1,0,58,58,0,0,0,58,0,0,0,0,0,0,NA,0,58,0,0,0,NA,58,1139,309,04/09/2018 11:23,A template containing a practice and an experimental phase,96,no,800,1280,15.72330189,yes,Exp_10_working.osexp,C:\Users\russe\Dropbox,no,mono,no,32,no,#ffffff,no,I confirm that my participation has been explained and consent to taking part in the experiment,NA,4,yes,800,nh,droid,42,15,11,C:/Users/russe/Dropbox/Exp_10/New folder/subject-9.csv,droid,Jazzy James,3.1.7,0,12,NA,1,NA,1,1,NA,12,563,NA,779,NA,470,687,NA,563,2,legacy,Male,1024,2,48000,-16,experiment,9,odd,droid,4996,NA,NA,40638,41204,10103,11355,NA,40639,19636,NA,NA,NA,NA,2354,NA,NA,41204,NA,10884,18947,NA,40639,Runtime for Android template,38,18578,43,0.8,no,1280,1.411716379
86.36363636,86.36363636,26,431.1363636,431.1363636,#000000,no,1,droid,legacy,legacy,0,I confirm that my participation has been explained and consent to taking part in the experiment,relative,0,undefined,undefined,0,0,1,0,59,59,0,0,0,59,0,0,0,0,0,0,NA,0,59,0,0,0,NA,59,819,683,04/09/2018 11:23,A template containing a practice and an experimental phase,96,no,800,1280,15.72330189,yes,Exp_10_working.osexp,C:\Users\russe\Dropbox,no,mono,no,32,no,#ffffff,no,I confirm that my participation has been explained and consent to taking part in the experiment,NA,1,yes,800,hl,droid,43,15,17,C:/Users/russe/Dropbox/Exp_10/New folder/subject-9.csv,droid,Jazzy James,3.1.7,0,22,NA,1,NA,1,1,NA,22,392,NA,779,NA,470,687,NA,392,2,legacy,Male,1024,2,48000,-16,experiment,9,odd,droid,4996,NA,NA,41256,41652,10103,11355,NA,41258,19636,NA,NA,NA,NA,2354,NA,NA,41652,NA,10884,18947,NA,41258,Runtime for Android template,38,18970,44,0.07692,no,1280,-0.33652408
86.66666667,86.66666667,26,430.3111111,430.3111111,#000000,no,1,droid,legacy,legacy,0,I confirm that my participation has been explained and consent to taking part in the experiment,relative,1,undefined,undefined,1,0,1,0,60,60,0,0,0,60,0,0,0,0,0,0,NA,0,60,0,0,0,NA,60,733,549,04/09/2018 11:23,A template containing a practice and an experimental phase,96,no,800,1280,15.72330189,yes,Exp_10_working.osexp,C:\Users\russe\Dropbox,no,mono,no,32,no,#ffffff,no,I confirm that my participation has been explained and consent to taking part in the experiment,NA,1,yes,800,lk,droid,44,15,16,C:/Users/russe/Dropbox/Exp_10/New folder/subject-9.csv,droid,Jazzy James,3.1.7,0,16,NA,1,NA,1,1,NA,16,394,NA,779,NA,470,687,NA,394,2,legacy,Male,1024,2,48000,-16,experiment,9,odd,droid,4996,NA,NA,41711,42108,10103,11355,NA,41712,19636,NA,NA,NA,NA,2354,NA,NA,42108,NA,10884,18947,NA,41712,Runtime for Android template,39,19364,45,0.25,no,1280,-0.316076824
86.95652174,86.95652174,26,429.2173913,429.2173913,#000000,no,1,droid,legacy,legacy,0,I confirm that my participation has been explained and consent to taking part in the experiment,relative,1,undefined,undefined,1,0,1,0,61,61,0,0,0,61,0,0,0,0,0,0,NA,0,61,0,0,0,NA,61,740,485,04/09/2018 11:23,A template containing a practice and an experimental phase,96,no,800,1280,15.72330189,yes,Exp_10_working.osexp,C:\Users\russe\Dropbox,no,mono,no,32,no,#ffffff,no,I confirm that my participation has been explained and consent to taking part in the experiment,NA,1,yes,800,kk,droid,45,15,16,C:/Users/russe/Dropbox/Exp_10/New folder/subject-9.csv,droid,Jazzy James,3.1.7,0,16,NA,1,NA,1,1,NA,16,380,NA,779,NA,470,687,NA,380,2,legacy,Male,1024,2,48000,-16,experiment,9,odd,droid,4996,NA,NA,42172,42556,10103,11355,NA,42174,19636,NA,NA,NA,NA,2354,NA,NA,42556,NA,10884,18947,NA,42174,Runtime for Android template,40,19744,46,0.125,no,1280,-0.459207621
87.23404255,87.23404255,26,428.0638298,428.0638298,#000000,no,1,droid,legacy,legacy,0,I confirm that my participation has been explained and consent to taking part in the experiment,relative,1,undefined,undefined,1,0,1,0,62,62,0,0,0,62,0,0,0,0,0,0,NA,0,62,0,0,0,NA,62,969,346,04/09/2018 11:23,A template containing a practice and an experimental phase,96,no,800,1280,15.72330189,yes,Exp_10_working.osexp,C:\Users\russe\Dropbox,no,mono,no,32,no,#ffffff,no,I confirm that my participation has been explained and consent to taking part in the experiment,NA,2,yes,800,kh,droid,46,15,11,C:/Users/russe/Dropbox/Exp_10/New folder/subject-9.csv,droid,Jazzy James,3.1.7,0,11,NA,1,NA,1,1,NA,11,375,NA,779,NA,470,687,NA,375,2,legacy,Male,1024,2,48000,-16,experiment,9,odd,droid,4996,NA,NA,42657,43036,10103,11355,NA,42659,19636,NA,NA,NA,NA,2354,NA,NA,43036,NA,10884,18947,NA,42659,Runtime for Android template,41,20119,47,0.25,no,1280,-0.510325764
87.5,87.5,26,428.2083333,428.2083333,#000000,no,1,droid,legacy,legacy,0,I confirm that my participation has been explained and consent to taking part in the experiment,relative,1,undefined,undefined,1,0,1,0,63,63,0,0,0,63,0,0,0,0,0,0,NA,0,63,0,0,0,NA,63,689,153,04/09/2018 11:23,A template containing a practice and an experimental phase,96,no,800,1280,15.72330189,yes,Exp_10_working.osexp,C:\Users\russe\Dropbox,no,mono,no,32,no,#ffffff,no,I confirm that my participation has been explained and consent to taking part in the experiment,NA,1,yes,800,hd,droid,47,15,4,C:/Users/russe/Dropbox/Exp_10/New folder/subject-9.csv,droid,Jazzy James,3.1.7,0,4,NA,1,NA,1,1,NA,4,435,NA,779,NA,470,687,NA,435,2,legacy,Male,1024,2,48000,-16,experiment,9,odd,droid,4996,NA,NA,43157,43596,10103,11355,NA,43158,19636,NA,NA,NA,NA,2354,NA,NA,43596,NA,10884,18947,NA,43159,Runtime for Android template,42,20554,48,0.07692,no,1280,0.103091941
85.71428571,85.71428571,26,429.2653061,429.2653061,#000000,no,1,droid,legacy,legacy,0,I confirm that my participation has been explained and consent to taking part in the experiment,relative,0,undefined,undefined,0,0,1,0,64,64,0,0,0,64,0,0,0,0,0,0,NA,0,64,0,0,0,NA,64,711,554,04/09/2018 11:23,A template containing a practice and an experimental phase,96,no,800,1280,15.72330189,yes,Exp_10_working.osexp,C:\Users\russe\Dropbox,no,mono,no,32,no,#ffffff,no,I confirm that my participation has been explained and consent to taking part in the experiment,NA,1,yes,800,do,droid,48,15,22,C:/Users/russe/Dropbox/Exp_10/New folder/subject-9.csv,droid,Jazzy James,3.1.7,0,16,NA,1,NA,1,1,NA,16,480,NA,779,NA,470,687,NA,480,2,legacy,Male,1024,2,48000,-16,experiment,9,odd,droid,4996,NA,NA,43648,44132,10103,11355,NA,43649,19636,NA,NA,NA,NA,2354,NA,NA,44132,NA,10884,18947,NA,43650,Runtime for Android template,42,21034,49,0.33333,no,1280,0.56315522
86,86,26,429.26,429.26,#000000,no,1,droid,legacy,legacy,0,I confirm that my participation has been explained and consent to taking part in the experiment,relative,1,undefined,undefined,1,0,1,0,65,65,0,0,0,65,0,0,0,0,0,0,NA,0,65,0,0,0,NA,65,584,653,04/09/2018 11:23,A template containing a practice and an experimental phase,96,no,800,1280,15.72330189,yes,Exp_10_working.osexp,C:\Users\russe\Dropbox,no,mono,no,32,no,#ffffff,no,I confirm that my participation has been explained and consent to taking part in the experiment,NA,1,yes,800,on,droid,49,15,21,C:/Users/russe/Dropbox/Exp_10/New folder/subject-9.csv,droid,Jazzy James,3.1.7,0,21,NA,1,NA,1,1,NA,21,429,NA,779,NA,470,687,NA,429,2,legacy,Male,1024,2,48000,-16,experiment,9,odd,droid,4996,NA,NA,44195,44630,10103,11355,NA,44196,19636,NA,NA,NA,NA,2354,NA,NA,44630,NA,10884,18947,NA,44197,Runtime for Android template,43,21463,50,0.0625,no,1280,0.041750171
86.2745098,86.2745098,26,428.4705882,428.4705882,#000000,no,1,droid,legacy,legacy,0,I confirm that my participation has been explained and consent to taking part in the experiment,relative,1,undefined,undefined,1,0,1,0,66,66,0,0,0,66,0,0,0,0,0,0,NA,0,66,0,0,0,NA,66,735,488,04/09/2018 11:23,A template containing a practice and an experimental phase,96,no,800,1280,15.72330189,yes,Exp_10_working.osexp,C:\Users\russe\Dropbox,no,mono,no,32,no,#ffffff,no,I confirm that my participation has been explained and consent to taking part in the experiment,NA,1,yes,800,nk,droid,50,15,16,C:/Users/russe/Dropbox/Exp_10/New folder/subject-9.csv,droid,Jazzy James,3.1.7,0,16,NA,1,NA,1,1,NA,16,389,NA,779,NA,470,687,NA,389,2,legacy,Male,1024,2,48000,-16,experiment,9,odd,droid,4996,NA,NA,44699,45092,10103,11355,NA,44701,19636,NA,NA,NA,NA,2354,NA,NA,45092,NA,10884,18947,NA,44701,Runtime for Android template,44,21852,51,0.2,no,1280,-0.367194966
86.53846154,86.53846154,26,428.4038462,428.4038462,#000000,no,1,droid,legacy,legacy,0,I confirm that my participation has been explained and consent to taking part in the experiment,relative,1,undefined,undefined,1,0,1,0,67,67,0,0,0,67,0,0,0,0,0,0,NA,0,67,0,0,0,NA,67,313,307,04/09/2018 11:23,A template containing a practice and an experimental phase,96,no,800,1280,15.72330189,yes,Exp_10_working.osexp,C:\Users\russe\Dropbox,no,mono,no,32,no,#ffffff,no,I confirm that my participation has been explained and consent to taking part in the experiment,NA,1,yes,800,ke,droid,51,15,8,C:/Users/russe/Dropbox/Exp_10/New folder/subject-9.csv,droid,Jazzy James,3.1.7,0,8,NA,1,NA,1,1,NA,8,425,NA,779,NA,470,687,NA,425,2,legacy,Male,1024,2,48000,-16,experiment,9,odd,droid,4996,NA,NA,45192,45620,10103,11355,NA,45193,19636,NA,NA,NA,NA,2354,NA,NA,45620,NA,10884,18947,NA,45193,Runtime for Android template,45,22277,52,0.125,no,1280,0.000855657
84.90566038,84.90566038,26,428.1132075,428.1132075,#000000,no,1,droid,legacy,legacy,0,I confirm that my participation has been explained and consent to taking part in the experiment,relative,0,undefined,undefined,0,0,1,0,68,68,0,0,0,68,0,0,0,0,0,0,NA,0,68,0,0,0,NA,68,766,584,04/09/2018 11:23,A template containing a practice and an experimental phase,96,no,800,1280,15.72330189,yes,Exp_10_working.osexp,C:\Users\russe\Dropbox,no,mono,no,32,no,#ffffff,no,I confirm that my participation has been explained and consent to taking part in the experiment,NA,1,yes,800,eo,droid,52,15,22,C:/Users/russe/Dropbox/Exp_10/New folder/subject-9.csv,droid,Jazzy James,3.1.7,0,16,NA,1,NA,1,1,NA,16,413,NA,779,NA,470,687,NA,413,2,legacy,Male,1024,2,48000,-16,experiment,9,odd,droid,4996,NA,NA,45684,46100,10103,11355,NA,45685,19636,NA,NA,NA,NA,2354,NA,NA,46100,NA,10884,18947,NA,45685,Runtime for Android template,45,22690,53,0.08333,no,1280,-0.121827884
85.18518519,85.18518519,26,428.537037,428.537037,#000000,no,1,droid,legacy,legacy,0,I confirm that my participation has been explained and consent to taking part in the experiment,relative,1,undefined,undefined,1,0,1,0,69,69,0,0,0,69,0,0,0,0,0,0,NA,0,69,0,0,0,NA,69,214,148,04/09/2018 11:23,A template containing a practice and an experimental phase,96,no,800,1280,15.72330189,yes,Exp_10_working.osexp,C:\Users\russe\Dropbox,no,mono,no,32,no,#ffffff,no,I confirm that my participation has been explained and consent to taking part in the experiment,NA,4,yes,800,oa,droid,53,15,2,C:/Users/russe/Dropbox/Exp_10/New folder/subject-9.csv,droid,Jazzy James,3.1.7,0,2,NA,1,NA,1,1,NA,2,451,NA,779,NA,470,687,NA,451,2,legacy,Male,1024,2,48000,-16,experiment,9,odd,droid,4996,NA,NA,46157,46612,10103,11355,NA,46159,19636,NA,NA,NA,NA,2354,NA,NA,46612,NA,10884,18947,NA,46159,Runtime for Android template,46,23141,54,0.25,no,1280,0.266669996
85.45454545,85.45454545,26,426.9818182,426.9818182,#000000,no,1,droid,legacy,legacy,0,I confirm that my participation has been explained and consent to taking part in the experiment,relative,1,undefined,undefined,1,0,1,0,70,70,0,0,0,70,0,0,0,0,0,0,NA,0,70,0,0,0,NA,70,339,332,04/09/2018 11:23,A template containing a practice and an experimental phase,96,no,800,1280,15.72330189,yes,Exp_10_working.osexp,C:\Users\russe\Dropbox,no,mono,no,32,no,#ffffff,no,I confirm that my participation has been explained and consent to taking part in the experiment,NA,1,yes,800,ae,droid,54,15,8,C:/Users/russe/Dropbox/Exp_10/New folder/subject-9.csv,droid,Jazzy James,3.1.7,0,8,NA,1,NA,1,1,NA,8,343,NA,779,NA,470,687,NA,343,2,legacy,Male,1024,2,48000,-16,experiment,9,odd,droid,4996,NA,NA,46673,47020,10103,11355,NA,46675,19636,NA,NA,NA,NA,2354,NA,NA,47020,NA,10884,18947,NA,46675,Runtime for Android template,47,23484,55,0.16667,no,1280,-0.837481873
85.71428571,85.71428571,26,427.1964286,427.1964286,#000000,no,1,droid,legacy,legacy,0,I confirm that my participation has been explained and consent to taking part in the experiment,relative,1,undefined,undefined,1,0,1,0,71,71,0,0,0,71,0,0,0,0,0,0,NA,0,71,0,0,0,NA,71,277,734,04/09/2018 11:23,A template containing a practice and an experimental phase,96,no,800,1280,15.72330189,yes,Exp_10_working.osexp,C:\Users\russe\Dropbox,no,mono,no,32,no,#ffffff,no,I confirm that my participation has been explained and consent to taking part in the experiment,NA,1,yes,800,em,droid,55,15,20,C:/Users/russe/Dropbox/Exp_10/New folder/subject-9.csv,droid,Jazzy James,3.1.7,0,20,NA,1,NA,1,1,NA,20,439,NA,779,NA,470,687,NA,439,2,legacy,Male,1024,2,48000,-16,experiment,9,odd,droid,4996,NA,NA,47073,47516,10103,11355,NA,47075,19636,NA,NA,NA,NA,2354,NA,NA,47516,NA,10884,18947,NA,47075,Runtime for Android template,48,23923,56,0.08333,no,1280,0.143986455
85.96491228,85.96491228,26,426.2280702,426.2280702,#000000,no,1,droid,legacy,legacy,0,I confirm that my participation has been explained and consent to taking part in the experiment,relative,1,undefined,undefined,1,0,1,0,72,72,0,0,0,72,0,0,0,0,0,0,NA,0,72,0,0,0,NA,72,710,710,04/09/2018 11:23,A template containing a practice and an experimental phase,96,no,800,1280,15.72330189,yes,Exp_10_working.osexp,C:\Users\russe\Dropbox,no,mono,no,32,no,#ffffff,no,I confirm that my participation has been explained and consent to taking part in the experiment,NA,2,yes,800,mo,droid,56,15,22,C:/Users/russe/Dropbox/Exp_10/New folder/subject-9.csv,droid,Jazzy James,3.1.7,0,22,NA,1,NA,1,1,NA,22,372,NA,779,NA,470,687,NA,372,2,legacy,Male,1024,2,48000,-16,experiment,9,odd,droid,4996,NA,NA,47597,47973,10103,11355,NA,47598,19636,NA,NA,NA,NA,2354,NA,NA,47973,NA,10884,18947,NA,47598,Runtime for Android template,49,24295,57,0.22222,no,1280,-0.540996649
86.20689655,86.20689655,26,425.5344828,425.5344828,#000000,no,1,droid,legacy,legacy,0,I confirm that my participation has been explained and consent to taking part in the experiment,relative,1,undefined,undefined,1,0,1,0,73,73,0,0,0,73,0,0,0,0,0,0,NA,0,73,0,0,0,NA,73,750,681,04/09/2018 11:23,A template containing a practice and an experimental phase,96,no,800,1280,15.72330189,yes,Exp_10_working.osexp,C:\Users\russe\Dropbox,no,mono,no,32,no,#ffffff,no,I confirm that my participation has been explained and consent to taking part in the experiment,NA,1,yes,800,oo,droid,57,15,22,C:/Users/russe/Dropbox/Exp_10/New folder/subject-9.csv,droid,Jazzy James,3.1.7,0,22,NA,1,NA,1,1,NA,22,386,NA,779,NA,470,687,NA,386,2,legacy,Male,1024,2,48000,-16,experiment,9,odd,droid,4996,NA,NA,48038,48429,10103,11355,NA,48040,19636,NA,NA,NA,NA,2354,NA,NA,48429,NA,10884,18947,NA,48040,Runtime for Android template,50,24681,58,0.0625,no,1280,-0.397865851
86.44067797,86.44067797,26,426.1525424,426.1525424,#000000,no,1,droid,legacy,legacy,0,I confirm that my participation has been explained and consent to taking part in the experiment,relative,1,undefined,undefined,1,0,1,0,74,74,0,0,0,74,0,0,0,0,0,0,NA,0,74,0,0,0,NA,74,1018,663,04/09/2018 11:23,A template containing a practice and an experimental phase,96,no,800,1280,15.72330189,yes,Exp_10_working.osexp,C:\Users\russe\Dropbox,no,mono,no,32,no,#ffffff,no,I confirm that my participation has been explained and consent to taking part in the experiment,NA,1,yes,800,op,droid,58,15,23,C:/Users/russe/Dropbox/Exp_10/New folder/subject-9.csv,droid,Jazzy James,3.1.7,0,23,NA,1,NA,1,1,NA,23,462,NA,779,NA,470,687,NA,462,2,legacy,Male,1024,2,48000,-16,experiment,9,odd,droid,4996,NA,NA,48491,48957,10103,11355,NA,48492,19636,NA,NA,NA,NA,2354,NA,NA,48957,NA,10884,18947,NA,48492,Runtime for Android template,51,25143,59,0.0625,no,1280,0.379129909
86.66666667,86.66666667,26,424.9833333,424.9833333,#000000,no,1,droid,legacy,legacy,0,I confirm that my participation has been explained and consent to taking part in the experiment,relative,1,undefined,undefined,1,0,1,0,75,75,0,0,0,75,0,0,0,0,0,0,NA,0,75,0,0,0,NA,75,768,312,04/09/2018 11:23,A template containing a practice and an experimental phase,96,no,800,1280,15.72330189,yes,Exp_10_working.osexp,C:\Users\russe\Dropbox,no,mono,no,32,no,#ffffff,no,I confirm that my participation has been explained and consent to taking part in the experiment,NA,1,yes,800,pg,droid,59,15,10,C:/Users/russe/Dropbox/Exp_10/New folder/subject-9.csv,droid,Jazzy James,3.1.7,0,10,NA,1,NA,1,1,NA,10,356,NA,779,NA,470,687,NA,356,2,legacy,Male,1024,2,48000,-16,experiment,9,odd,droid,4996,NA,NA,49021,49380,10103,11355,NA,49022,19636,NA,NA,NA,NA,2354,NA,NA,49380,NA,10884,18947,NA,49022,Runtime for Android template,52,25499,60,0.2,no,1280,-0.704574703
86.8852459,86.8852459,26,427.852459,427.852459,#000000,no,1,droid,legacy,legacy,0,I confirm that my participation has been explained and consent to taking part in the experiment,relative,1,undefined,undefined,1,0,1,0,76,76,0,0,0,76,0,0,0,0,0,0,NA,0,76,0,0,0,NA,76,318,669,04/09/2018 11:23,A template containing a practice and an experimental phase,96,no,800,1280,15.72330189,yes,Exp_10_working.osexp,C:\Users\russe\Dropbox,no,mono,no,32,no,#ffffff,no,I confirm that my participation has been explained and consent to taking part in the experiment,NA,1,yes,800,gm,droid,60,15,20,C:/Users/russe/Dropbox/Exp_10/New folder/subject-9.csv,droid,Jazzy James,3.1.7,0,20,NA,1,NA,1,1,NA,20,600,NA,779,NA,470,687,NA,600,2,legacy,Male,1024,2,48000,-16,experiment,9,odd,droid,4996,NA,NA,49440,50044,10103,11355,NA,49442,19636,NA,NA,NA,NA,2354,NA,NA,50044,NA,10884,18947,NA,49442,Runtime for Android template,53,26099,61,0.2,no,1280,1.78999063
87.09677419,87.09677419,26,427.1935484,427.1935484,#000000,no,1,droid,legacy,legacy,0,I confirm that my participation has been explained and consent to taking part in the experiment,relative,1,undefined,undefined,1,0,1,0,77,77,0,0,0,77,0,0,0,0,0,0,NA,0,77,0,0,0,NA,77,348,277,04/09/2018 11:23,A template containing a practice and an experimental phase,96,no,800,1280,15.72330189,yes,Exp_10_working.osexp,C:\Users\russe\Dropbox,no,mono,no,32,no,#ffffff,no,I confirm that my participation has been explained and consent to taking part in the experiment,NA,2,yes,800,me,droid,61,15,8,C:/Users/russe/Dropbox/Exp_10/New folder/subject-9.csv,droid,Jazzy James,3.1.7,0,8,NA,1,NA,1,1,NA,8,387,NA,779,NA,470,687,NA,387,2,legacy,Male,1024,2,48000,-16,experiment,9,odd,droid,4996,NA,NA,50109,50500,10103,11355,NA,50111,19636,NA,NA,NA,NA,2354,NA,NA,50500,NA,10884,18947,NA,50111,Runtime for Android template,54,26486,62,0.22222,no,1280,-0.387642223
87.3015873,87.3015873,26,426.9365079,426.9365079,#000000,no,1,droid,legacy,legacy,0,I confirm that my participation has been explained and consent to taking part in the experiment,relative,1,undefined,undefined,1,0,1,0,78,78,0,0,0,78,0,0,0,0,0,0,NA,0,78,0,0,0,NA,78,758,137,04/09/2018 11:23,A template containing a practice and an experimental phase,96,no,800,1280,15.72330189,yes,Exp_10_working.osexp,C:\Users\russe\Dropbox,no,mono,no,32,no,#ffffff,no,I confirm that my participation has been explained and consent to taking part in the experiment,NA,1,yes,800,ed,droid,62,15,4,C:/Users/russe/Dropbox/Exp_10/New folder/subject-9.csv,droid,Jazzy James,3.1.7,0,4,NA,1,NA,1,1,NA,4,411,NA,779,NA,470,687,NA,411,2,legacy,Male,1024,2,48000,-16,experiment,9,odd,droid,4996,NA,NA,50557,50972,10103,11355,NA,50559,19636,NA,NA,NA,NA,2354,NA,NA,50972,NA,10884,18947,NA,50559,Runtime for Android template,55,26897,63,0.83333,no,1280,-0.142275141
87.5,87.5,26,427.640625,427.640625,#000000,no,1,droid,legacy,legacy,0,I confirm that my participation has been explained and consent to taking part in the experiment,relative,1,undefined,undefined,1,0,1,0,79,79,0,0,0,79,0,0,0,0,0,0,NA,0,79,0,0,0,NA,79,235,53,04/09/2018 11:23,A template containing a practice and an experimental phase,96,no,800,1280,15.72330189,yes,Exp_10_working.osexp,C:\Users\russe\Dropbox,no,mono,no,32,no,#ffffff,no,I confirm that my participation has been explained and consent to taking part in the experiment,NA,1,yes,800,da,droid,63,15,2,C:/Users/russe/Dropbox/Exp_10/New folder/subject-9.csv,droid,Jazzy James,3.1.7,0,2,NA,1,NA,1,1,NA,2,472,NA,779,NA,470,687,NA,472,2,legacy,Male,1024,2,48000,-16,experiment,9,odd,droid,4996,NA,NA,51024,51500,10103,11355,NA,51026,19636,NA,NA,NA,NA,2354,NA,NA,51500,NA,10884,18947,NA,51026,Runtime for Android template,56,27369,64,0.33333,no,1280,0.481366193
87.69230769,87.69230769,26,426.6461538,426.6461538,#000000,no,1,droid,legacy,legacy,0,I confirm that my participation has been explained and consent to taking part in the experiment,relative,1,undefined,undefined,1,0,1,0,80,80,0,0,0,80,0,0,0,0,0,0,NA,0,80,0,0,0,NA,80,628,159,04/09/2018 11:23,A template containing a practice and an experimental phase,96,no,800,1280,15.72330189,yes,Exp_10_working.osexp,C:\Users\russe\Dropbox,no,mono,no,32,no,#ffffff,no,I confirm that my participation has been explained and consent to taking part in the experiment,NA,2,yes,800,ab,droid,64,15,3,C:/Users/russe/Dropbox/Exp_10/New folder/subject-9.csv,droid,Jazzy James,3.1.7,0,3,NA,1,NA,1,1,NA,3,363,NA,779,NA,470,687,NA,363,2,legacy,Male,1024,2,48000,-16,experiment,9,odd,droid,4996,NA,NA,51557,51924,10103,11355,NA,51559,19636,NA,NA,NA,NA,2354,NA,NA,51924,NA,10884,18947,NA,51559,Runtime for Android template,57,27732,65,0.33333,no,1280,-0.633009305
87.87878788,87.87878788,26,426.969697,426.969697,#000000,no,1,droid,legacy,legacy,0,I confirm that my participation has been explained and consent to taking part in the experiment,relative,1,undefined,undefined,1,0,1,0,81,81,0,0,0,81,0,0,0,0,0,0,NA,0,81,0,0,0,NA,81,951,609,04/09/2018 11:23,A template containing a practice and an experimental phase,96,no,800,1280,15.72330189,yes,Exp_10_working.osexp,C:\Users\russe\Dropbox,no,mono,no,32,no,#ffffff,no,I confirm that my participation has been explained and consent to taking part in the experiment,NA,1,yes,800,bp,droid,65,15,23,C:/Users/russe/Dropbox/Exp_10/New folder/subject-9.csv,droid,Jazzy James,3.1.7,0,23,NA,1,NA,1,1,NA,23,448,NA,779,NA,470,687,NA,448,2,legacy,Male,1024,2,48000,-16,experiment,9,odd,droid,4996,NA,NA,52025,52476,10103,11355,NA,52026,19636,NA,NA,NA,NA,2354,NA,NA,52476,NA,10884,18947,NA,52026,Runtime for Android template,58,28180,66,0.125,no,1280,0.235999111
88.05970149,88.05970149,26,427.1343284,427.1343284,#000000,no,1,droid,legacy,legacy,0,I confirm that my participation has been explained and consent to taking part in the experiment,relative,1,undefined,undefined,1,0,1,0,82,82,0,0,0,82,0,0,0,0,0,0,NA,0,82,0,0,0,NA,82,354,341,04/09/2018 11:23,A template containing a practice and an experimental phase,96,no,800,1280,15.72330189,yes,Exp_10_working.osexp,C:\Users\russe\Dropbox,no,mono,no,32,no,#ffffff,no,I confirm that my participation has been explained and consent to taking part in the experiment,NA,1,yes,800,pe,droid,66,15,8,C:/Users/russe/Dropbox/Exp_10/New folder/subject-9.csv,droid,Jazzy James,3.1.7,0,8,NA,1,NA,1,1,NA,8,438,NA,779,NA,470,687,NA,438,2,legacy,Male,1024,2,48000,-16,experiment,9,odd,droid,4996,NA,NA,52538,52981,10103,11355,NA,52540,19636,NA,NA,NA,NA,2354,NA,NA,52981,NA,10884,18947,NA,52540,Runtime for Android template,59,28618,67,0.2,no,1280,0.133762827
88.23529412,88.23529412,26,427.2352941,427.2352941,#000000,no,1,droid,legacy,legacy,0,I confirm that my participation has been explained and consent to taking part in the experiment,relative,1,undefined,undefined,1,0,1,0,83,83,0,0,0,83,0,0,0,0,0,0,NA,0,83,0,0,0,NA,83,330,346,04/09/2018 11:23,A template containing a practice and an experimental phase,96,no,800,1280,15.72330189,yes,Exp_10_working.osexp,C:\Users\russe\Dropbox,no,mono,no,32,no,#ffffff,no,I confirm that my participation has been explained and consent to taking part in the experiment,NA,2,yes,800,ee,droid,67,15,8,C:/Users/russe/Dropbox/Exp_10/New folder/subject-9.csv,droid,Jazzy James,3.1.7,0,8,NA,1,NA,1,1,NA,8,434,NA,779,NA,470,687,NA,434,2,legacy,Male,1024,2,48000,-16,experiment,9,odd,droid,4996,NA,NA,53038,53477,10103,11355,NA,53040,19636,NA,NA,NA,NA,2354,NA,NA,53477,NA,10884,18947,NA,53040,Runtime for Android template,60,29052,68,0.16667,no,1280,0.092868313
88.4057971,88.4057971,26,427.5072464,427.5072464,#000000,no,1,droid,legacy,legacy,0,I confirm that my participation has been explained and consent to taking part in the experiment,relative,1,undefined,undefined,1,0,1,0,84,84,0,0,0,84,0,0,0,0,0,0,NA,0,84,0,0,0,NA,84,591,134,04/09/2018 11:23,A template containing a practice and an experimental phase,96,no,800,1280,15.72330189,yes,Exp_10_working.osexp,C:\Users\russe\Dropbox,no,mono,no,32,no,#ffffff,no,I confirm that my participation has been explained and consent to taking part in the experiment,NA,1,yes,800,eb,droid,68,15,3,C:/Users/russe/Dropbox/Exp_10/New folder/subject-9.csv,droid,Jazzy James,3.1.7,0,3,NA,1,NA,1,1,NA,3,446,NA,779,NA,470,687,NA,446,2,legacy,Male,1024,2,48000,-16,experiment,9,odd,droid,4996,NA,NA,53531,53980,10103,11355,NA,53532,19636,NA,NA,NA,NA,2354,NA,NA,53980,NA,10884,18947,NA,53532,Runtime for Android template,61,29498,69,0.08333,no,1280,0.215551854
88.57142857,88.57142857,26,426.7142857,426.7142857,#000000,no,1,droid,legacy,legacy,0,I confirm that my participation has been explained and consent to taking part in the experiment,relative,1,undefined,undefined,1,0,1,0,85,85,0,0,0,85,0,0,0,0,0,0,NA,0,85,0,0,0,NA,85,400,242,04/09/2018 11:23,A template containing a practice and an experimental phase,96,no,800,1280,15.72330189,yes,Exp_10_working.osexp,C:\Users\russe\Dropbox,no,mono,no,32,no,#ffffff,no,I confirm that my participation has been explained and consent to taking part in the experiment,NA,1,yes,800,be,droid,69,15,8,C:/Users/russe/Dropbox/Exp_10/New folder/subject-9.csv,droid,Jazzy James,3.1.7,0,8,NA,1,NA,1,1,NA,8,372,NA,779,NA,470,687,NA,372,2,legacy,Male,1024,2,48000,-16,experiment,9,odd,droid,4996,NA,NA,54069,54445,10103,11355,NA,54070,19636,NA,NA,NA,NA,2354,NA,NA,54445,NA,10884,18947,NA,54070,Runtime for Android template,62,29870,70,0.125,no,1280,-0.540996649
88.73239437,88.73239437,26,426.4084507,426.4084507,#000000,no,1,droid,legacy,legacy,0,I confirm that my participation has been explained and consent to taking part in the experiment,relative,1,undefined,undefined,1,0,1,0,86,86,0,0,0,86,0,0,0,0,0,0,NA,0,86,0,0,0,NA,86,526,75,04/09/2018 11:23,A template containing a practice and an experimental phase,96,no,800,1280,15.72330189,yes,Exp_10_working.osexp,C:\Users\russe\Dropbox,no,mono,no,32,no,#ffffff,no,I confirm that my participation has been explained and consent to taking part in the experiment,NA,2,yes,800,bb,droid,70,15,3,C:/Users/russe/Dropbox/Exp_10/New folder/subject-9.csv,droid,Jazzy James,3.1.7,0,3,NA,1,NA,1,1,NA,3,405,NA,779,NA,470,687,NA,405,2,legacy,Male,1024,2,48000,-16,experiment,9,odd,droid,4996,NA,NA,54499,54908,10103,11355,NA,54501,19636,NA,NA,NA,NA,2354,NA,NA,54908,NA,10884,18947,NA,54501,Runtime for Android template,63,30275,71,0.25,no,1280,-0.203616911
88.88888889,88.88888889,26,426.1805556,426.1805556,#000000,no,1,droid,legacy,legacy,0,I confirm that my participation has been explained and consent to taking part in the experiment,relative,1,undefined,undefined,1,0,1,0,87,87,0,0,0,87,0,0,0,0,0,0,NA,0,87,0,0,0,NA,87,732,139,04/09/2018 11:23,A template containing a practice and an experimental phase,96,no,800,1280,15.72330189,yes,Exp_10_working.osexp,C:\Users\russe\Dropbox,no,mono,no,32,no,#ffffff,no,I confirm that my participation has been explained and consent to taking part in the experiment,NA,1,yes,800,bc,droid,71,15,4,C:/Users/russe/Dropbox/Exp_10/New folder/subject-9.csv,droid,Jazzy James,3.1.7,0,4,NA,1,NA,1,1,NA,4,410,NA,779,NA,470,687,NA,410,2,legacy,Male,1024,2,48000,-16,experiment,9,odd,droid,4996,NA,NA,54959,55373,10103,11355,NA,54960,19636,NA,NA,NA,NA,2354,NA,NA,55373,NA,10884,18947,NA,54960,Runtime for Android template,64,30685,72,0.125,no,1280,-0.152498769
87.67123288,87.67123288,26,426.9726027,426.9726027,#000000,no,1,droid,legacy,legacy,0,I confirm that my participation has been explained and consent to taking part in the experiment,relative,0,undefined,undefined,0,0,1,0,88,88,0,0,0,88,0,0,0,0,0,0,NA,0,88,0,0,0,NA,88,716,588,04/09/2018 11:23,A template containing a practice and an experimental phase,96,no,800,1280,15.72330189,yes,Exp_10_working.osexp,C:\Users\russe\Dropbox,no,mono,no,32,no,#ffffff,no,I confirm that my participation has been explained and consent to taking part in the experiment,NA,3,yes,800,co,droid,72,15,22,C:/Users/russe/Dropbox/Exp_10/New folder/subject-9.csv,droid,Jazzy James,3.1.7,0,16,NA,1,NA,1,1,NA,16,484,NA,779,NA,470,687,NA,484,2,legacy,Male,1024,2,48000,-16,experiment,9,odd,droid,4996,NA,NA,55541,56030,10103,11355,NA,55542,19636,NA,NA,NA,NA,2354,NA,NA,56030,NA,10884,18947,NA,55542,Runtime for Android template,64,31169,73,0.3,no,1280,0.604049734
87.83783784,87.83783784,26,427.527027,427.527027,#000000,no,1,droid,legacy,legacy,0,I confirm that my participation has been explained and consent to taking part in the experiment,relative,1,undefined,undefined,1,0,1,0,89,89,0,0,0,89,0,0,0,0,0,0,NA,0,89,0,0,0,NA,89,282,69,04/09/2018 11:23,A template containing a practice and an experimental phase,96,no,800,1280,15.72330189,yes,Exp_10_working.osexp,C:\Users\russe\Dropbox,no,mono,no,32,no,#ffffff,no,I confirm that my participation has been explained and consent to taking part in the experiment,NA,4,yes,800,oa,droid,73,15,2,C:/Users/russe/Dropbox/Exp_10/New folder/subject-9.csv,droid,Jazzy James,3.1.7,0,2,NA,1,NA,1,1,NA,2,468,NA,779,NA,470,687,NA,468,2,legacy,Male,1024,2,48000,-16,experiment,9,odd,droid,4996,NA,NA,56084,56557,10103,11355,NA,56086,19636,NA,NA,NA,NA,2354,NA,NA,56557,NA,10884,18947,NA,56086,Runtime for Android template,65,31637,74,0.25,no,1280,0.440471679
88,88,26,427.52,427.52,#000000,no,1,droid,legacy,legacy,0,I confirm that my participation has been explained and consent to taking part in the experiment,relative,1,undefined,undefined,1,0,1,0,90,90,0,0,0,90,0,0,0,0,0,0,NA,0,90,0,0,0,NA,90,735,668,04/09/2018 11:23,A template containing a practice and an experimental phase,96,no,800,1280,15.72330189,yes,Exp_10_working.osexp,C:\Users\russe\Dropbox,no,mono,no,32,no,#ffffff,no,I confirm that my participation has been explained and consent to taking part in the experiment,NA,2,yes,800,ao,droid,74,15,22,C:/Users/russe/Dropbox/Exp_10/New folder/subject-9.csv,droid,Jazzy James,3.1.7,0,22,NA,1,NA,1,1,NA,22,427,NA,779,NA,470,687,NA,427,2,legacy,Male,1024,2,48000,-16,experiment,9,odd,droid,4996,NA,NA,56622,57052,10103,11355,NA,56623,19636,NA,NA,NA,NA,2354,NA,NA,57052,NA,10884,18947,NA,56623,Runtime for Android template,66,32064,75,0.33333,no,1280,0.021302914
88.15789474,88.15789474,26,427.4736842,427.4736842,#000000,no,1,droid,legacy,legacy,0,I confirm that my participation has been explained and consent to taking part in the experiment,relative,1,undefined,undefined,1,0,1,0,91,91,0,0,0,91,0,0,0,0,0,0,NA,0,91,0,0,0,NA,91,721,96,04/09/2018 11:23,A template containing a practice and an experimental phase,96,no,800,1280,15.72330189,yes,Exp_10_working.osexp,C:\Users\russe\Dropbox,no,mono,no,32,no,#ffffff,no,I confirm that my participation has been explained and consent to taking part in the experiment,NA,2,yes,800,oc,droid,75,15,4,C:/Users/russe/Dropbox/Exp_10/New folder/subject-9.csv,droid,Jazzy James,3.1.7,0,4,NA,1,NA,1,1,NA,4,424,NA,779,NA,470,687,NA,424,2,legacy,Male,1024,2,48000,-16,experiment,9,odd,droid,4996,NA,NA,57193,57620,10103,11355,NA,57194,19636,NA,NA,NA,NA,2354,NA,NA,57620,NA,10884,18947,NA,57194,Runtime for Android template,67,32488,76,0.125,no,1280,-0.009367971
88.31168831,88.31168831,26,426.8441558,426.8441558,#000000,no,1,droid,legacy,legacy,0,I confirm that my participation has been explained and consent to taking part in the experiment,relative,1,undefined,undefined,1,0,1,0,92,92,0,0,0,92,0,0,0,0,0,0,NA,0,92,0,0,0,NA,92,728,599,04/09/2018 11:23,A template containing a practice and an experimental phase,96,no,800,1280,15.72330189,yes,Exp_10_working.osexp,C:\Users\russe\Dropbox,no,mono,no,32,no,#ffffff,no,I confirm that my participation has been explained and consent to taking part in the experiment,NA,1,yes,800,ck,droid,76,15,16,C:/Users/russe/Dropbox/Exp_10/New folder/subject-9.csv,droid,Jazzy James,3.1.7,0,16,NA,1,NA,1,1,NA,16,379,NA,779,NA,470,687,NA,379,2,legacy,Male,1024,2,48000,-16,experiment,9,odd,droid,4996,NA,NA,57670,58052,10103,11355,NA,57671,19636,NA,NA,NA,NA,2354,NA,NA,58052,NA,10884,18947,NA,57671,Runtime for Android template,68,32867,77,0.1,no,1280,-0.46943125
87.17948718,87.17948718,26,425.8717949,425.8717949,#000000,no,1,droid,legacy,legacy,0,I confirm that my participation has been explained and consent to taking part in the experiment,relative,0,undefined,undefined,0,0,1,0,93,93,0,0,0,93,0,0,0,0,0,0,NA,0,93,0,0,0,NA,93,804,187,04/09/2018 11:23,A template containing a practice and an experimental phase,96,no,800,1280,15.72330189,yes,Exp_10_working.osexp,C:\Users\russe\Dropbox,no,mono,no,32,no,#ffffff,no,I confirm that my participation has been explained and consent to taking part in the experiment,NA,1,yes,800,kg,droid,77,15,10,C:/Users/russe/Dropbox/Exp_10/New folder/subject-9.csv,droid,Jazzy James,3.1.7,0,4,NA,1,NA,1,1,NA,4,351,NA,779,NA,470,687,NA,351,2,legacy,Male,1024,2,48000,-16,experiment,9,odd,droid,4996,NA,NA,58114,58468,10103,11355,NA,58115,19636,NA,NA,NA,NA,2354,NA,NA,58468,NA,10884,18947,NA,58115,Runtime for Android template,68,33218,78,0.125,no,1280,-0.755692846
87.34177215,87.34177215,26,425.6835443,425.6835443,#000000,no,1,droid,legacy,legacy,0,I confirm that my participation has been explained and consent to taking part in the experiment,relative,1,undefined,undefined,1,0,1,0,94,94,0,0,0,94,0,0,0,0,0,0,NA,0,94,0,0,0,NA,94,578,732,04/09/2018 11:23,A template containing a practice and an experimental phase,96,no,800,1280,15.72330189,yes,Exp_10_working.osexp,C:\Users\russe\Dropbox,no,mono,no,32,no,#ffffff,no,I confirm that my participation has been explained and consent to taking part in the experiment,NA,1,yes,800,gn,droid,78,15,21,C:/Users/russe/Dropbox/Exp_10/New folder/subject-9.csv,droid,Jazzy James,3.1.7,0,21,NA,1,NA,1,1,NA,21,411,NA,779,NA,470,687,NA,411,2,legacy,Male,1024,2,48000,-16,experiment,9,odd,droid,4996,NA,NA,58525,58941,10103,11355,NA,58527,19636,NA,NA,NA,NA,2354,NA,NA,58941,NA,10884,18947,NA,58527,Runtime for Android template,69,33629,79,0.2,no,1280,-0.142275141
86.25,86.25,26,425.0625,425.0625,#000000,no,1,droid,legacy,legacy,0,I confirm that my participation has been explained and consent to taking part in the experiment,relative,0,undefined,undefined,0,0,1,0,95,95,0,0,0,95,0,0,0,0,0,0,NA,0,95,0,0,0,NA,95,1085,142,04/09/2018 11:23,A template containing a practice and an experimental phase,96,no,800,1280,15.72330189,yes,Exp_10_working.osexp,C:\Users\russe\Dropbox,no,mono,no,32,no,#ffffff,no,I confirm that my participation has been explained and consent to taking part in the experiment,NA,4,yes,800,nh,droid,79,15,11,C:/Users/russe/Dropbox/Exp_10/New folder/subject-9.csv,droid,Jazzy James,3.1.7,0,6,NA,1,NA,1,1,NA,6,376,NA,779,NA,470,687,NA,376,2,legacy,Male,1024,2,48000,-16,experiment,9,odd,droid,4996,NA,NA,59000,59380,10103,11355,NA,59002,19636,NA,NA,NA,NA,2354,NA,NA,59381,NA,10884,18947,NA,59002,Runtime for Android template,69,34005,80,0.8,no,1280,-0.500102135
86.41975309,86.41975309,26,425.7160494,425.7160494,#000000,no,1,droid,legacy,legacy,0,I confirm that my participation has been explained and consent to taking part in the experiment,relative,1,undefined,undefined,1,0,1,0,96,96,0,0,0,96,0,0,0,0,0,0,NA,0,96,0,0,0,NA,96,937,290,04/09/2018 11:23,A template containing a practice and an experimental phase,96,no,800,1280,15.72330189,yes,Exp_10_working.osexp,C:\Users\russe\Dropbox,no,mono,no,32,no,#ffffff,no,I confirm that my participation has been explained and consent to taking part in the experiment,NA,1,yes,800,hn,droid,80,15,11,C:/Users/russe/Dropbox/Exp_10/New folder/subject-9.csv,droid,Jazzy James,3.1.7,0,11,NA,1,NA,1,1,NA,11,478,NA,779,NA,470,687,NA,478,2,legacy,Male,1024,2,48000,-16,experiment,9,odd,droid,4996,NA,NA,59435,59916,10103,11355,NA,59436,19636,NA,NA,NA,NA,2354,NA,NA,59916,NA,10884,18947,NA,59436,Runtime for Android template,70,34483,81,0.07692,no,1280,0.542707963
86.58536585,86.58536585,26,425.5121951,425.5121951,#000000,no,1,droid,legacy,legacy,0,I confirm that my participation has been explained and consent to taking part in the experiment,relative,1,undefined,undefined,1,0,1,0,97,97,0,0,0,97,0,0,0,0,0,0,NA,0,97,0,0,0,NA,97,607,644,04/09/2018 11:23,A template containing a practice and an experimental phase,96,no,800,1280,15.72330189,yes,Exp_10_working.osexp,C:\Users\russe\Dropbox,no,mono,no,32,no,#ffffff,no,I confirm that my participation has been explained and consent to taking part in the experiment,NA,4,yes,800,nh,droid,81,15,21,C:/Users/russe/Dropbox/Exp_10/New folder/subject-9.csv,droid,Jazzy James,3.1.7,0,21,NA,1,NA,1,1,NA,21,409,NA,779,NA,470,687,NA,409,2,legacy,Male,1024,2,48000,-16,experiment,9,odd,droid,4996,NA,NA,59975,60389,10103,11355,NA,59977,19636,NA,NA,NA,NA,2354,NA,NA,60389,NA,10884,18947,NA,59977,Runtime for Android template,71,34892,82,0.8,no,1280,-0.162722397
86.74698795,86.74698795,26,425.1204819,425.1204819,#000000,no,1,droid,legacy,legacy,0,I confirm that my participation has been explained and consent to taking part in the experiment,relative,1,undefined,undefined,1,0,1,0,98,98,0,0,0,98,0,0,0,0,0,0,NA,0,98,0,0,0,NA,98,910,651,04/09/2018 11:23,A template containing a practice and an experimental phase,96,no,800,1280,15.72330189,yes,Exp_10_working.osexp,C:\Users\russe\Dropbox,no,mono,no,32,no,#ffffff,no,I confirm that my participation has been explained and consent to taking part in the experiment,NA,1,yes,800,hp,droid,82,15,23,C:/Users/russe/Dropbox/Exp_10/New folder/subject-9.csv,droid,Jazzy James,3.1.7,0,23,NA,1,NA,1,1,NA,23,393,NA,779,NA,470,687,NA,393,2,legacy,Male,1024,2,48000,-16,experiment,9,odd,droid,4996,NA,NA,60447,60844,10103,11355,NA,60449,19636,NA,NA,NA,NA,2354,NA,NA,60844,NA,10884,18947,NA,60449,Runtime for Android template,72,35285,83,0.07692,no,1280,-0.326300452
86.9047619,86.9047619,26,425.1071429,425.1071429,#000000,no,1,droid,legacy,legacy,0,I confirm that my participation has been explained and consent to taking part in the experiment,relative,1,undefined,undefined,1,0,1,0,99,99,0,0,0,99,0,0,0,0,0,0,NA,0,99,0,0,0,NA,99,353,688,04/09/2018 11:23,A template containing a practice and an experimental phase,96,no,800,1280,15.72330189,yes,Exp_10_working.osexp,C:\Users\russe\Dropbox,no,mono,no,32,no,#ffffff,no,I confirm that my participation has been explained and consent to taking part in the experiment,NA,1,yes,800,pm,droid,83,15,20,C:/Users/russe/Dropbox/Exp_10/New folder/subject-9.csv,droid,Jazzy James,3.1.7,0,20,NA,1,NA,1,1,NA,20,424,NA,779,NA,470,687,NA,424,2,legacy,Male,1024,2,48000,-16,experiment,9,odd,droid,4996,NA,NA,60904,61332,10103,11355,NA,60906,19636,NA,NA,NA,NA,2354,NA,NA,61332,NA,10884,18947,NA,60906,Runtime for Android template,73,35709,84,0.2,no,1280,-0.009367971
87.05882353,87.05882353,26,425.2470588,425.2470588,#000000,no,1,droid,legacy,legacy,0,I confirm that my participation has been explained and consent to taking part in the experiment,relative,1,undefined,undefined,1,0,1,0,100,100,0,0,0,100,0,0,0,0,0,0,NA,0,100,0,0,0,NA,100,920,362,04/09/2018 11:23,A template containing a practice and an experimental phase,96,no,800,1280,15.72330189,yes,Exp_10_working.osexp,C:\Users\russe\Dropbox,no,mono,no,32,no,#ffffff,no,I confirm that my participation has been explained and consent to taking part in the experiment,NA,1,yes,800,mh,droid,84,15,11,C:/Users/russe/Dropbox/Exp_10/New folder/subject-9.csv,droid,Jazzy James,3.1.7,0,11,NA,1,NA,1,1,NA,11,437,NA,779,NA,470,687,NA,437,2,legacy,Male,1024,2,48000,-16,experiment,9,odd,droid,4996,NA,NA,61395,61836,10103,11355,NA,61397,19636,NA,NA,NA,NA,2354,NA,NA,61837,NA,10884,18947,NA,61397,Runtime for Android template,74,36146,85,0.11111,no,1280,0.123539198
86.04651163,86.04651163,26,424.1511628,424.1511628,#000000,no,1,droid,legacy,legacy,0,I confirm that my participation has been explained and consent to taking part in the experiment,relative,0,undefined,undefined,0,0,1,0,101,101,0,0,0,101,0,0,0,0,0,0,NA,0,101,0,0,0,NA,101,352,494,04/09/2018 11:23,A template containing a practice and an experimental phase,96,no,800,1280,15.72330189,yes,Exp_10_working.osexp,C:\Users\russe\Dropbox,no,mono,no,32,no,#ffffff,no,I confirm that my participation has been explained and consent to taking part in the experiment,NA,2,yes,800,hj,droid,85,15,15,C:/Users/russe/Dropbox/Exp_10/New folder/subject-9.csv,droid,Jazzy James,3.1.7,0,14,NA,1,NA,1,1,NA,14,331,NA,779,NA,470,687,NA,331,2,legacy,Male,1024,2,48000,-16,experiment,9,odd,droid,4996,NA,NA,61893,62228,10103,11355,NA,61895,19636,NA,NA,NA,NA,2354,NA,NA,62228,NA,10884,18947,NA,61895,Runtime for Android template,74,36477,86,0.15385,no,1280,-0.960165414
86.20689655,86.20689655,26,424.2643678,424.2643678,#000000,no,1,droid,legacy,legacy,0,I confirm that my participation has been explained and consent to taking part in the experiment,relative,1,undefined,undefined,1,0,1,0,102,102,0,0,0,102,0,0,0,0,0,0,NA,0,102,0,0,0,NA,102,924,299,04/09/2018 11:23,A template containing a practice and an experimental phase,96,no,800,1280,15.72330189,yes,Exp_10_working.osexp,C:\Users\russe\Dropbox,no,mono,no,32,no,#ffffff,no,I confirm that my participation has been explained and consent to taking part in the experiment,NA,1,yes,800,jh,droid,86,15,11,C:/Users/russe/Dropbox/Exp_10/New folder/subject-9.csv,droid,Jazzy James,3.1.7,0,11,NA,1,NA,1,1,NA,11,434,NA,779,NA,470,687,NA,434,2,legacy,Male,1024,2,48000,-16,experiment,9,odd,droid,4996,NA,NA,62286,62725,10103,11355,NA,62287,19636,NA,NA,NA,NA,2354,NA,NA,62725,NA,10884,18947,NA,62288,Runtime for Android template,75,36911,87,0.125,no,1280,0.092868313
86.36363636,86.36363636,26,424.2613636,424.2613636,#000000,no,1,droid,legacy,legacy,0,I confirm that my participation has been explained and consent to taking part in the experiment,relative,1,undefined,undefined,1,0,1,0,103,103,0,0,0,103,0,0,0,0,0,0,NA,0,103,0,0,0,NA,103,773,338,04/09/2018 11:23,A template containing a practice and an experimental phase,96,no,800,1280,15.72330189,yes,Exp_10_working.osexp,C:\Users\russe\Dropbox,no,mono,no,32,no,#ffffff,no,I confirm that my participation has been explained and consent to taking part in the experiment,NA,2,yes,800,hg,droid,87,15,10,C:/Users/russe/Dropbox/Exp_10/New folder/subject-9.csv,droid,Jazzy James,3.1.7,0,10,NA,1,NA,1,1,NA,10,424,NA,779,NA,470,687,NA,424,2,legacy,Male,1024,2,48000,-16,experiment,9,odd,droid,4996,NA,NA,62777,63204,10103,11355,NA,62778,19636,NA,NA,NA,NA,2354,NA,NA,63204,NA,10884,18947,NA,62778,Runtime for Android template,76,37335,88,0.15385,no,1280,-0.009367971
86.51685393,86.51685393,26,423.6067416,423.6067416,#000000,no,1,droid,legacy,legacy,0,I confirm that my participation has been explained and consent to taking part in the experiment,relative,1,undefined,undefined,1,0,1,0,104,104,0,0,0,104,0,0,0,0,0,0,NA,0,104,0,0,0,NA,104,586,479,04/09/2018 11:23,A template containing a practice and an experimental phase,96,no,800,1280,15.72330189,yes,Exp_10_working.osexp,C:\Users\russe\Dropbox,no,mono,no,32,no,#ffffff,no,I confirm that my participation has been explained and consent to taking part in the experiment,NA,1,yes,800,gj,droid,88,15,15,C:/Users/russe/Dropbox/Exp_10/New folder/subject-9.csv,droid,Jazzy James,3.1.7,0,15,NA,1,NA,1,1,NA,15,366,NA,779,NA,470,687,NA,366,2,legacy,Male,1024,2,48000,-16,experiment,9,odd,droid,4996,NA,NA,63258,63629,10103,11355,NA,63260,19636,NA,NA,NA,NA,2354,NA,NA,63629,NA,10884,18947,NA,63260,Runtime for Android template,77,37701,89,0.2,no,1280,-0.602338419
