acc,accuracy,age,average_response_time,avg_rt,background,bidi,block,canvas_backend,clock_backend,color_backend,compensation,consent,coordinates,correct,correct_Instructions,correct_new_sketchpad,correct_new_touch_response_4,count_Age,count_Break,count_Consent,count_Experimental_sequence,count_ISI,count_Instructions,count_Prac_block,count_Sex,count_Test_pad,count_block_1,count_block_2,count_block_3,count_block_4,count_block_5,count_experiment,count_feedback,count_incongruent_block,count_logger,count_new_reset_feedback,count_new_sketchpad,count_new_sketchpad_1,count_new_sketchpad_3,count_new_touch_response_4,cursor_x,cursor_y,datetime,description,device_dpi,device_is_tablet,device_resolution_height,device_resolution_width,device_screen_diag,disable_garbage_collection,experiment_file,experiment_path,font_bold,font_family,font_italic,font_size,font_underline,foreground,form_clicks,form_response,form_var,freq,fullscreen,height,key,keyboard_backend,live_row,live_row_Prac_block,loc,logfile,mouse_backend,opensesame_codename,opensesame_version,repeat_cycle,response,response_Break,response_Instructions,response_feedback,response_new_sketchpad,response_new_sketchpad_1,response_new_sketchpad_3,response_new_touch_response_4,response_time,response_time_Break,response_time_Instructions,response_time_feedback,response_time_new_sketchpad,response_time_new_sketchpad_1,response_time_new_sketchpad_3,response_time_new_touch_response_4,round_decimals,sampler_backend,sex,sound_buf_size,sound_channels,sound_freq,sound_sample_size,start,subject_nr,subject_parity,synth_backend,time_Age,time_Break,time_Consent,time_Experimental_sequence,time_ISI,time_Instructions,time_Prac_block,time_Sex,time_Test_pad,time_block_1,time_block_2,time_block_3,time_block_4,time_block_5,time_experiment,time_feedback,time_incongruent_block,time_logger,time_new_reset_feedback,time_new_sketchpad,time_new_sketchpad_1,time_new_sketchpad_3,time_new_touch_response_4,title,total_correct,total_response_time,total_responses,tp,uniform_coordinates,width,z
100,100,25,610,610,#000000,no,NA,droid,legacy,legacy,0,I confirm that my participation has been explained and consent to taking part in the experiment,relative,1,undefined,undefined,1,0,1,0,0,0,0,0,0,0,0,0,0,0,0,0,NA,0,0,0,0,0,NA,0,717,98,04/03/2018 11:29,A template containing a practice and an experimental phase,96,no,800,1280,15.72330189,yes,Exp_10_working.osexp,C:\Users\russe\Dropbox,no,mono,no,32,no,#ffffff,no,I confirm that my participation has been explained and consent to taking part in the experiment,NA,NA,yes,800,NA,droid,0,0,4,C:/Users/russe/Dropbox/Exp_10/subject-3.csv,droid,Jazzy James,3.1.7,0,4,NA,1,NA,1,NA,NA,4,610,NA,614,NA,446,NA,NA,610,2,legacy,Male,1024,2,48000,-16,experiment,3,odd,droid,5413,NA,NA,11705,12318,10622,11684,NA,11706,NA,NA,NA,NA,NA,2376,NA,NA,12318,NA,11238,NA,NA,11706,Runtime for Android template,1,610,1,NA,no,1280,1.561878707
100,100,25,596,596,#000000,no,NA,droid,legacy,legacy,0,I confirm that my participation has been explained and consent to taking part in the experiment,relative,1,undefined,undefined,1,0,1,0,1,1,0,0,0,1,0,0,0,0,0,0,NA,0,1,0,0,0,NA,1,768,704,04/03/2018 11:29,A template containing a practice and an experimental phase,96,no,800,1280,15.72330189,yes,Exp_10_working.osexp,C:\Users\russe\Dropbox,no,mono,no,32,no,#ffffff,no,I confirm that my participation has been explained and consent to taking part in the experiment,NA,NA,yes,800,NA,droid,1,1,22,C:/Users/russe/Dropbox/Exp_10/subject-3.csv,droid,Jazzy James,3.1.7,0,22,NA,1,NA,1,NA,NA,22,582,NA,614,NA,446,NA,NA,582,2,legacy,Male,1024,2,48000,-16,experiment,3,odd,droid,5413,NA,NA,12500,13086,10622,11684,NA,12502,NA,NA,NA,NA,NA,2376,NA,NA,13086,NA,11238,NA,NA,12502,Runtime for Android template,2,1192,2,NA,no,1280,1.296561145
100,100,25,564,564,#000000,no,NA,droid,legacy,legacy,0,I confirm that my participation has been explained and consent to taking part in the experiment,relative,1,undefined,undefined,1,0,1,0,2,2,0,0,0,2,0,0,0,0,0,0,NA,0,2,0,0,0,NA,2,924,500,04/03/2018 11:29,A template containing a practice and an experimental phase,96,no,800,1280,15.72330189,yes,Exp_10_working.osexp,C:\Users\russe\Dropbox,no,mono,no,32,no,#ffffff,no,I confirm that my participation has been explained and consent to taking part in the experiment,NA,NA,yes,800,NA,droid,2,2,17,C:/Users/russe/Dropbox/Exp_10/subject-3.csv,droid,Jazzy James,3.1.7,0,17,NA,1,NA,1,NA,NA,17,500,NA,614,NA,446,NA,NA,500,2,legacy,Male,1024,2,48000,-16,experiment,3,odd,droid,5413,NA,NA,13174,13677,10622,11684,NA,13175,NA,NA,NA,NA,NA,2376,NA,NA,13677,NA,11238,NA,NA,13176,Runtime for Android template,3,1692,3,NA,no,1280,0.519559715
100,100,25,569.25,569.25,#000000,no,NA,droid,legacy,legacy,0,I confirm that my participation has been explained and consent to taking part in the experiment,relative,1,undefined,undefined,1,0,1,0,3,3,0,0,0,3,0,0,0,0,0,0,NA,0,3,0,0,0,NA,3,285,86,04/03/2018 11:29,A template containing a practice and an experimental phase,96,no,800,1280,15.72330189,yes,Exp_10_working.osexp,C:\Users\russe\Dropbox,no,mono,no,32,no,#ffffff,no,I confirm that my participation has been explained and consent to taking part in the experiment,NA,NA,yes,800,NA,droid,3,3,2,C:/Users/russe/Dropbox/Exp_10/subject-3.csv,droid,Jazzy James,3.1.7,0,2,NA,1,NA,1,NA,NA,2,585,NA,614,NA,446,NA,NA,585,2,legacy,Male,1024,2,48000,-16,experiment,3,odd,droid,5413,NA,NA,13801,14390,10622,11684,NA,13803,NA,NA,NA,NA,NA,2376,NA,NA,14390,NA,11238,NA,NA,13803,Runtime for Android template,4,2277,4,NA,no,1280,1.324988027
100,100,25,559.4,559.4,#000000,no,NA,droid,legacy,legacy,0,I confirm that my participation has been explained and consent to taking part in the experiment,relative,1,undefined,undefined,1,0,1,0,4,4,0,0,0,4,0,0,0,0,0,0,NA,0,4,0,0,0,NA,4,284,533,04/03/2018 11:29,A template containing a practice and an experimental phase,96,no,800,1280,15.72330189,yes,Exp_10_working.osexp,C:\Users\russe\Dropbox,no,mono,no,32,no,#ffffff,no,I confirm that my participation has been explained and consent to taking part in the experiment,NA,NA,yes,800,NA,droid,4,4,14,C:/Users/russe/Dropbox/Exp_10/subject-3.csv,droid,Jazzy James,3.1.7,0,14,NA,1,NA,1,NA,NA,14,520,NA,614,NA,446,NA,NA,520,2,legacy,Male,1024,2,48000,-16,experiment,3,odd,droid,5413,NA,NA,14490,15013,10622,11684,NA,14491,NA,NA,NA,NA,NA,2376,NA,NA,15014,NA,11238,NA,NA,14492,Runtime for Android template,5,2797,5,NA,no,1280,0.709072259
100,100,25,544.8333333,544.8333333,#000000,no,NA,droid,legacy,legacy,0,I confirm that my participation has been explained and consent to taking part in the experiment,relative,1,undefined,undefined,1,0,1,0,5,5,0,0,0,5,0,0,0,0,0,0,NA,0,5,0,0,0,NA,5,315,252,04/03/2018 11:29,A template containing a practice and an experimental phase,96,no,800,1280,15.72330189,yes,Exp_10_working.osexp,C:\Users\russe\Dropbox,no,mono,no,32,no,#ffffff,no,I confirm that my participation has been explained and consent to taking part in the experiment,NA,NA,yes,800,NA,droid,5,5,8,C:/Users/russe/Dropbox/Exp_10/subject-3.csv,droid,Jazzy James,3.1.7,0,8,NA,1,NA,1,NA,NA,8,472,NA,614,NA,446,NA,NA,472,2,legacy,Male,1024,2,48000,-16,experiment,3,odd,droid,5413,NA,NA,15114,15590,10622,11684,NA,15116,NA,NA,NA,NA,NA,2376,NA,NA,15590,NA,11238,NA,NA,15116,Runtime for Android template,6,3269,6,NA,no,1280,0.254242153
100,100,25,540.5714286,540.5714286,#000000,no,NA,droid,legacy,legacy,0,I confirm that my participation has been explained and consent to taking part in the experiment,relative,1,undefined,undefined,1,0,1,0,6,6,0,0,0,6,0,0,0,0,0,0,NA,0,6,0,0,0,NA,6,581,726,04/03/2018 11:29,A template containing a practice and an experimental phase,96,no,800,1280,15.72330189,yes,Exp_10_working.osexp,C:\Users\russe\Dropbox,no,mono,no,32,no,#ffffff,no,I confirm that my participation has been explained and consent to taking part in the experiment,NA,NA,yes,800,NA,droid,6,6,21,C:/Users/russe/Dropbox/Exp_10/subject-3.csv,droid,Jazzy James,3.1.7,0,21,NA,1,NA,1,NA,NA,21,515,NA,614,NA,446,NA,NA,515,2,legacy,Male,1024,2,48000,-16,experiment,3,odd,droid,5413,NA,NA,15671,16190,10622,11684,NA,15672,NA,NA,NA,NA,NA,2376,NA,NA,16190,NA,11238,NA,NA,15673,Runtime for Android template,7,3784,7,NA,no,1280,0.661694123
100,100,25,520.375,520.375,#000000,no,NA,droid,legacy,legacy,0,I confirm that my participation has been explained and consent to taking part in the experiment,relative,1,undefined,undefined,1,0,1,0,7,7,0,0,0,7,0,0,0,0,0,0,NA,0,7,0,0,0,NA,7,762,484,04/03/2018 11:29,A template containing a practice and an experimental phase,96,no,800,1280,15.72330189,yes,Exp_10_working.osexp,C:\Users\russe\Dropbox,no,mono,no,32,no,#ffffff,no,I confirm that my participation has been explained and consent to taking part in the experiment,NA,NA,yes,800,NA,droid,7,7,16,C:/Users/russe/Dropbox/Exp_10/subject-3.csv,droid,Jazzy James,3.1.7,0,16,NA,1,NA,1,NA,NA,16,379,NA,614,NA,446,NA,NA,379,2,legacy,Male,1024,2,48000,-16,experiment,3,odd,droid,5413,NA,NA,16247,16631,10622,11684,NA,16249,NA,NA,NA,NA,NA,2376,NA,NA,16631,NA,11238,NA,NA,16249,Runtime for Android template,8,4163,8,NA,no,1280,-0.626991176
100,100,25,516,516,#000000,no,NA,droid,legacy,legacy,0,I confirm that my participation has been explained and consent to taking part in the experiment,relative,1,undefined,undefined,1,0,1,0,8,8,0,0,0,8,0,0,0,0,0,0,NA,0,8,0,0,0,NA,8,528,485,04/03/2018 11:29,A template containing a practice and an experimental phase,96,no,800,1280,15.72330189,yes,Exp_10_working.osexp,C:\Users\russe\Dropbox,no,mono,no,32,no,#ffffff,no,I confirm that my participation has been explained and consent to taking part in the experiment,NA,NA,yes,800,NA,droid,8,8,15,C:/Users/russe/Dropbox/Exp_10/subject-3.csv,droid,Jazzy James,3.1.7,0,15,NA,1,NA,1,NA,NA,15,481,NA,614,NA,446,NA,NA,481,2,legacy,Male,1024,2,48000,-16,experiment,3,odd,droid,5413,NA,NA,16689,17174,10622,11684,NA,16691,NA,NA,NA,NA,NA,2376,NA,NA,17174,NA,11238,NA,NA,16691,Runtime for Android template,9,4644,9,NA,no,1280,0.339522798
100,100,25,548.3,548.3,#000000,no,NA,droid,legacy,legacy,0,I confirm that my participation has been explained and consent to taking part in the experiment,relative,1,undefined,undefined,1,0,1,0,9,9,0,0,0,9,0,0,0,0,0,0,NA,0,9,0,0,0,NA,9,1000,71,04/03/2018 11:29,A template containing a practice and an experimental phase,96,no,800,1280,15.72330189,yes,Exp_10_working.osexp,C:\Users\russe\Dropbox,no,mono,no,32,no,#ffffff,no,I confirm that my participation has been explained and consent to taking part in the experiment,NA,NA,yes,800,NA,droid,9,9,5,C:/Users/russe/Dropbox/Exp_10/subject-3.csv,droid,Jazzy James,3.1.7,0,5,NA,1,NA,1,NA,NA,5,839,NA,614,NA,446,NA,NA,839,2,legacy,Male,1024,2,48000,-16,experiment,3,odd,droid,5413,NA,NA,17347,18190,10622,11684,NA,17349,NA,NA,NA,NA,NA,2376,NA,NA,18190,NA,11238,NA,NA,17349,Runtime for Android template,10,5483,10,NA,no,1280,3.731797335
100,100,25,542.3636364,542.3636364,#000000,no,NA,droid,legacy,legacy,0,I confirm that my participation has been explained and consent to taking part in the experiment,relative,1,undefined,undefined,1,0,1,0,10,10,0,0,0,10,0,0,0,0,0,0,NA,0,10,0,0,0,NA,10,589,261,04/03/2018 11:29,A template containing a practice and an experimental phase,96,no,800,1280,15.72330189,yes,Exp_10_working.osexp,C:\Users\russe\Dropbox,no,mono,no,32,no,#ffffff,no,I confirm that my participation has been explained and consent to taking part in the experiment,NA,NA,yes,800,NA,droid,10,10,9,C:/Users/russe/Dropbox/Exp_10/subject-3.csv,droid,Jazzy James,3.1.7,0,9,NA,1,NA,1,NA,NA,9,483,NA,614,NA,446,NA,NA,483,2,legacy,Male,1024,2,48000,-16,experiment,3,odd,droid,5413,NA,NA,18255,18741,10622,11684,NA,18256,NA,NA,NA,NA,NA,2376,NA,NA,18741,NA,11238,NA,NA,18257,Runtime for Android template,11,5966,11,NA,no,1280,0.358474052
100,100,25,529,529,#000000,no,NA,droid,legacy,legacy,0,I confirm that my participation has been explained and consent to taking part in the experiment,relative,1,undefined,undefined,1,0,1,0,11,11,0,0,0,11,0,0,0,0,0,0,NA,0,11,0,0,0,NA,11,745,363,04/03/2018 11:29,A template containing a practice and an experimental phase,96,no,800,1280,15.72330189,yes,Exp_10_working.osexp,C:\Users\russe\Dropbox,no,mono,no,32,no,#ffffff,no,I confirm that my participation has been explained and consent to taking part in the experiment,NA,NA,yes,800,NA,droid,11,11,10,C:/Users/russe/Dropbox/Exp_10/subject-3.csv,droid,Jazzy James,3.1.7,0,10,NA,1,NA,1,NA,NA,10,382,NA,614,NA,446,NA,NA,382,2,legacy,Male,1024,2,48000,-16,experiment,3,odd,droid,5413,NA,NA,18819,19206,10622,11684,NA,18821,NA,NA,NA,NA,NA,2376,NA,NA,19206,NA,11238,NA,NA,18822,Runtime for Android template,12,6348,12,NA,no,1280,-0.598564295
100,100,25,524.1538462,524.1538462,#000000,no,NA,droid,legacy,legacy,0,I confirm that my participation has been explained and consent to taking part in the experiment,relative,1,undefined,undefined,1,0,1,0,12,12,0,0,0,12,0,0,0,0,0,0,NA,0,12,0,0,0,NA,12,942,384,04/03/2018 11:29,A template containing a practice and an experimental phase,96,no,800,1280,15.72330189,yes,Exp_10_working.osexp,C:\Users\russe\Dropbox,no,mono,no,32,no,#ffffff,no,I confirm that my participation has been explained and consent to taking part in the experiment,NA,NA,yes,800,NA,droid,12,12,11,C:/Users/russe/Dropbox/Exp_10/subject-3.csv,droid,Jazzy James,3.1.7,0,11,NA,1,NA,1,NA,NA,11,466,NA,614,NA,446,NA,NA,466,2,legacy,Male,1024,2,48000,-16,experiment,3,odd,droid,5413,NA,NA,19336,19805,10622,11684,NA,19337,NA,NA,NA,NA,NA,2376,NA,NA,19805,NA,11238,NA,NA,19338,Runtime for Android template,13,6814,13,NA,no,1280,0.19738839
100,100,25,523.2142857,523.2142857,#000000,no,NA,droid,legacy,legacy,0,I confirm that my participation has been explained and consent to taking part in the experiment,relative,1,undefined,undefined,1,0,1,0,13,13,0,0,0,13,0,0,0,0,0,0,NA,0,13,0,0,0,NA,13,581,140,04/03/2018 11:29,A template containing a practice and an experimental phase,96,no,800,1280,15.72330189,yes,Exp_10_working.osexp,C:\Users\russe\Dropbox,no,mono,no,32,no,#ffffff,no,I confirm that my participation has been explained and consent to taking part in the experiment,NA,NA,yes,800,NA,droid,13,13,3,C:/Users/russe/Dropbox/Exp_10/subject-3.csv,droid,Jazzy James,3.1.7,0,3,NA,1,NA,1,NA,NA,3,511,NA,614,NA,446,NA,NA,511,2,legacy,Male,1024,2,48000,-16,experiment,3,odd,droid,5413,NA,NA,19939,20455,10622,11684,NA,19941,NA,NA,NA,NA,NA,2376,NA,NA,20455,NA,11238,NA,NA,19941,Runtime for Android template,14,7325,14,NA,no,1280,0.623791614
100,100,25,521.6,521.6,#000000,no,NA,droid,legacy,legacy,0,I confirm that my participation has been explained and consent to taking part in the experiment,relative,1,undefined,undefined,1,0,1,0,14,14,0,0,0,14,0,0,0,0,0,0,NA,0,14,0,0,0,NA,14,408,628,04/03/2018 11:29,A template containing a practice and an experimental phase,96,no,800,1280,15.72330189,yes,Exp_10_working.osexp,C:\Users\russe\Dropbox,no,mono,no,32,no,#ffffff,no,I confirm that my participation has been explained and consent to taking part in the experiment,NA,NA,yes,800,NA,droid,14,14,20,C:/Users/russe/Dropbox/Exp_10/subject-3.csv,droid,Jazzy James,3.1.7,0,20,NA,1,NA,1,NA,NA,20,499,NA,614,NA,446,NA,NA,499,2,legacy,Male,1024,2,48000,-16,experiment,3,odd,droid,5413,NA,NA,20623,21125,10622,11684,NA,20625,NA,NA,NA,NA,NA,2376,NA,NA,21125,NA,11238,NA,NA,20625,Runtime for Android template,15,7824,15,NA,no,1280,0.510084088
100,100,25,520.9375,520.9375,#000000,no,NA,droid,legacy,legacy,0,I confirm that my participation has been explained and consent to taking part in the experiment,relative,1,undefined,undefined,1,0,1,0,15,15,0,0,0,15,0,0,0,0,0,0,NA,0,15,0,0,0,NA,15,923,688,04/03/2018 11:29,A template containing a practice and an experimental phase,96,no,800,1280,15.72330189,yes,Exp_10_working.osexp,C:\Users\russe\Dropbox,no,mono,no,32,no,#ffffff,no,I confirm that my participation has been explained and consent to taking part in the experiment,NA,NA,yes,800,NA,droid,15,15,23,C:/Users/russe/Dropbox/Exp_10/subject-3.csv,droid,Jazzy James,3.1.7,0,23,NA,1,NA,1,NA,NA,23,511,NA,614,NA,446,NA,NA,511,2,legacy,Male,1024,2,48000,-16,experiment,3,odd,droid,5413,NA,NA,21187,21701,10622,11684,NA,21189,NA,NA,NA,NA,NA,2376,NA,NA,21701,NA,11238,NA,NA,21189,Runtime for Android template,16,8335,16,NA,no,1280,0.623791614
100,100,25,583,583,#000000,no,1,droid,legacy,legacy,0,I confirm that my participation has been explained and consent to taking part in the experiment,relative,1,undefined,undefined,1,0,1,0,16,16,0,0,0,16,0,0,0,0,0,0,NA,0,16,0,0,0,NA,16,312,294,04/03/2018 11:29,A template containing a practice and an experimental phase,96,no,800,1280,15.72330189,yes,Exp_10_working.osexp,C:\Users\russe\Dropbox,no,mono,no,32,no,#ffffff,no,I confirm that my participation has been explained and consent to taking part in the experiment,NA,2,yes,800,oe,droid,0,15,8,C:/Users/russe/Dropbox/Exp_10/subject-3.csv,droid,Jazzy James,3.1.7,0,8,NA,1,NA,1,1,NA,8,583,NA,614,NA,446,712,NA,583,2,legacy,Male,1024,2,48000,-16,experiment,3,odd,droid,5413,NA,NA,22516,23101,10622,11684,NA,22517,22493,NA,NA,NA,NA,2376,NA,NA,23102,NA,11238,21780,NA,22517,Runtime for Android template,1,583,1,0.125,no,1280,1.306036772
100,100,25,471.5,471.5,#000000,no,1,droid,legacy,legacy,0,I confirm that my participation has been explained and consent to taking part in the experiment,relative,1,undefined,undefined,1,0,1,0,17,17,0,0,0,17,0,0,0,0,0,0,NA,0,17,0,0,0,NA,17,346,319,04/03/2018 11:29,A template containing a practice and an experimental phase,96,no,800,1280,15.72330189,yes,Exp_10_working.osexp,C:\Users\russe\Dropbox,no,mono,no,32,no,#ffffff,no,I confirm that my participation has been explained and consent to taking part in the experiment,NA,2,yes,800,ee,droid,1,15,8,C:/Users/russe/Dropbox/Exp_10/subject-3.csv,droid,Jazzy James,3.1.7,0,8,NA,1,NA,1,1,NA,8,360,NA,614,NA,446,712,NA,360,2,legacy,Male,1024,2,48000,-16,experiment,3,odd,droid,5413,NA,NA,23163,23525,10622,11684,NA,23164,22493,NA,NA,NA,NA,2376,NA,NA,23525,NA,11238,21780,NA,23164,Runtime for Android template,2,943,2,0.16667,no,1280,-0.807028093
100,100,25,439.3333333,439.3333333,#000000,no,1,droid,legacy,legacy,0,I confirm that my participation has been explained and consent to taking part in the experiment,relative,1,undefined,undefined,1,0,1,0,18,18,0,0,0,18,0,0,0,0,0,0,NA,0,18,0,0,0,NA,18,768,488,04/03/2018 11:29,A template containing a practice and an experimental phase,96,no,800,1280,15.72330189,yes,Exp_10_working.osexp,C:\Users\russe\Dropbox,no,mono,no,32,no,#ffffff,no,I confirm that my participation has been explained and consent to taking part in the experiment,NA,1,yes,800,ek,droid,2,15,16,C:/Users/russe/Dropbox/Exp_10/subject-3.csv,droid,Jazzy James,3.1.7,0,16,NA,1,NA,1,1,NA,16,375,NA,614,NA,446,712,NA,375,2,legacy,Male,1024,2,48000,-16,experiment,3,odd,droid,5413,NA,NA,23587,23965,10622,11684,NA,23588,22493,NA,NA,NA,NA,2376,NA,NA,23965,NA,11238,21780,NA,23589,Runtime for Android template,3,1318,3,0.08333,no,1280,-0.664893685
100,100,25,437.75,437.75,#000000,no,1,droid,legacy,legacy,0,I confirm that my participation has been explained and consent to taking part in the experiment,relative,1,undefined,undefined,1,0,1,0,19,19,0,0,0,19,0,0,0,0,0,0,NA,0,19,0,0,0,NA,19,761,102,04/03/2018 11:29,A template containing a practice and an experimental phase,96,no,800,1280,15.72330189,yes,Exp_10_working.osexp,C:\Users\russe\Dropbox,no,mono,no,32,no,#ffffff,no,I confirm that my participation has been explained and consent to taking part in the experiment,NA,1,yes,800,kc,droid,3,15,4,C:/Users/russe/Dropbox/Exp_10/subject-3.csv,droid,Jazzy James,3.1.7,0,4,NA,1,NA,1,1,NA,4,433,NA,614,NA,446,712,NA,433,2,legacy,Male,1024,2,48000,-16,experiment,3,odd,droid,5413,NA,NA,24177,24614,10622,11684,NA,24179,22493,NA,NA,NA,NA,2376,NA,NA,24614,NA,11238,21780,NA,24179,Runtime for Android template,4,1751,4,0.125,no,1280,-0.115307308
100,100,25,432.4,432.4,#000000,no,1,droid,legacy,legacy,0,I confirm that my participation has been explained and consent to taking part in the experiment,relative,1,undefined,undefined,1,0,1,0,20,20,0,0,0,20,0,0,0,0,0,0,NA,0,20,0,0,0,NA,20,965,453,04/03/2018 11:29,A template containing a practice and an experimental phase,96,no,800,1280,15.72330189,yes,Exp_10_working.osexp,C:\Users\russe\Dropbox,no,mono,no,32,no,#ffffff,no,I confirm that my participation has been explained and consent to taking part in the experiment,NA,1,yes,800,cl,droid,4,15,17,C:/Users/russe/Dropbox/Exp_10/subject-3.csv,droid,Jazzy James,3.1.7,0,17,NA,1,NA,1,1,NA,17,411,NA,614,NA,446,712,NA,411,2,legacy,Male,1024,2,48000,-16,experiment,3,odd,droid,5413,NA,NA,24727,25141,10622,11684,NA,24728,22493,NA,NA,NA,NA,2376,NA,NA,25141,NA,11238,21780,NA,24729,Runtime for Android template,5,2162,5,0.1,no,1280,-0.323771106
83.33333333,83.33333333,25,435.1666667,435.1666667,#000000,no,1,droid,legacy,legacy,0,I confirm that my participation has been explained and consent to taking part in the experiment,relative,0,undefined,undefined,0,0,1,0,21,21,0,0,0,21,0,0,0,0,0,0,NA,0,21,0,0,0,NA,21,448,600,04/03/2018 11:29,A template containing a practice and an experimental phase,96,no,800,1280,15.72330189,yes,Exp_10_working.osexp,C:\Users\russe\Dropbox,no,mono,no,32,no,#ffffff,no,I confirm that my participation has been explained and consent to taking part in the experiment,NA,1,yes,800,lm,droid,5,15,20,C:/Users/russe/Dropbox/Exp_10/subject-3.csv,droid,Jazzy James,3.1.7,0,21,NA,1,NA,1,1,NA,21,449,NA,614,NA,446,712,NA,449,2,legacy,Male,1024,2,48000,-16,experiment,3,odd,droid,5413,NA,NA,25209,25661,10622,11684,NA,25211,22493,NA,NA,NA,NA,2376,NA,NA,25661,NA,11238,21780,NA,25211,Runtime for Android template,5,2611,6,0.25,no,1280,0.036302728
85.71428571,85.71428571,25,430.1428571,430.1428571,#000000,no,1,droid,legacy,legacy,0,I confirm that my participation has been explained and consent to taking part in the experiment,relative,1,undefined,undefined,1,0,1,0,22,22,0,0,0,22,0,0,0,0,0,0,NA,0,22,0,0,0,NA,22,220,230,04/03/2018 11:29,A template containing a practice and an experimental phase,96,no,800,1280,15.72330189,yes,Exp_10_working.osexp,C:\Users\russe\Dropbox,no,mono,no,32,no,#ffffff,no,I confirm that my participation has been explained and consent to taking part in the experiment,NA,2,yes,800,me,droid,6,15,8,C:/Users/russe/Dropbox/Exp_10/subject-3.csv,droid,Jazzy James,3.1.7,0,8,NA,1,NA,1,1,NA,8,400,NA,614,NA,446,712,NA,400,2,legacy,Male,1024,2,48000,-16,experiment,3,odd,droid,5413,NA,NA,25746,26150,10622,11684,NA,25748,22493,NA,NA,NA,NA,2376,NA,NA,26150,NA,11238,21780,NA,25748,Runtime for Android template,6,3011,7,0.22222,no,1280,-0.428003005
87.5,87.5,25,430.125,430.125,#000000,no,1,droid,legacy,legacy,0,I confirm that my participation has been explained and consent to taking part in the experiment,relative,1,undefined,undefined,1,0,1,0,23,23,0,0,0,23,0,0,0,0,0,0,NA,0,23,0,0,0,NA,23,297,111,04/03/2018 11:29,A template containing a practice and an experimental phase,96,no,800,1280,15.72330189,yes,Exp_10_working.osexp,C:\Users\russe\Dropbox,no,mono,no,32,no,#ffffff,no,I confirm that my participation has been explained and consent to taking part in the experiment,NA,1,yes,800,ea,droid,7,15,2,C:/Users/russe/Dropbox/Exp_10/subject-3.csv,droid,Jazzy James,3.1.7,0,2,NA,1,NA,1,1,NA,2,430,NA,614,NA,446,712,NA,430,2,legacy,Male,1024,2,48000,-16,experiment,3,odd,droid,5413,NA,NA,26260,26693,10622,11684,NA,26262,22493,NA,NA,NA,NA,2376,NA,NA,26694,NA,11238,21780,NA,26262,Runtime for Android template,7,3441,8,0.08333,no,1280,-0.143734189
88.88888889,88.88888889,25,433.2222222,433.2222222,#000000,no,1,droid,legacy,legacy,0,I confirm that my participation has been explained and consent to taking part in the experiment,relative,1,undefined,undefined,1,0,1,0,24,24,0,0,0,24,0,0,0,0,0,0,NA,0,24,0,0,0,NA,24,772,726,04/03/2018 11:29,A template containing a practice and an experimental phase,96,no,800,1280,15.72330189,yes,Exp_10_working.osexp,C:\Users\russe\Dropbox,no,mono,no,32,no,#ffffff,no,I confirm that my participation has been explained and consent to taking part in the experiment,NA,2,yes,800,ao,droid,8,15,22,C:/Users/russe/Dropbox/Exp_10/subject-3.csv,droid,Jazzy James,3.1.7,0,22,NA,1,NA,1,1,NA,22,458,NA,614,NA,446,712,NA,458,2,legacy,Male,1024,2,48000,-16,experiment,3,odd,droid,5413,NA,NA,26760,27221,10622,11684,NA,26762,22493,NA,NA,NA,NA,2376,NA,NA,27221,NA,11238,21780,NA,26762,Runtime for Android template,8,3899,9,0.33333,no,1280,0.121583372
90,90,25,426.9,426.9,#000000,no,1,droid,legacy,legacy,0,I confirm that my participation has been explained and consent to taking part in the experiment,relative,1,undefined,undefined,1,0,1,0,25,25,0,0,0,25,0,0,0,0,0,0,NA,0,25,0,0,0,NA,25,531,508,04/03/2018 11:29,A template containing a practice and an experimental phase,96,no,800,1280,15.72330189,yes,Exp_10_working.osexp,C:\Users\russe\Dropbox,no,mono,no,32,no,#ffffff,no,I confirm that my participation has been explained and consent to taking part in the experiment,NA,1,yes,800,oj,droid,9,15,15,C:/Users/russe/Dropbox/Exp_10/subject-3.csv,droid,Jazzy James,3.1.7,0,15,NA,1,NA,1,1,NA,15,370,NA,614,NA,446,712,NA,370,2,legacy,Male,1024,2,48000,-16,experiment,3,odd,droid,5413,NA,NA,27272,27646,10622,11684,NA,27274,22493,NA,NA,NA,NA,2376,NA,NA,27646,NA,11238,21780,NA,27274,Runtime for Android template,9,4269,10,0.0625,no,1280,-0.712271821
81.81818182,81.81818182,25,416.3636364,416.3636364,#000000,no,1,droid,legacy,legacy,0,I confirm that my participation has been explained and consent to taking part in the experiment,relative,0,undefined,undefined,0,0,1,0,26,26,0,0,0,26,0,0,0,0,0,0,NA,0,26,0,0,0,NA,26,559,567,04/03/2018 11:29,A template containing a practice and an experimental phase,96,no,800,1280,15.72330189,yes,Exp_10_working.osexp,C:\Users\russe\Dropbox,no,mono,no,32,no,#ffffff,no,I confirm that my participation has been explained and consent to taking part in the experiment,NA,1,yes,800,jn,droid,10,15,21,C:/Users/russe/Dropbox/Exp_10/subject-3.csv,droid,Jazzy James,3.1.7,0,15,NA,1,NA,1,1,NA,15,311,NA,614,NA,446,712,NA,311,2,legacy,Male,1024,2,48000,-16,experiment,3,odd,droid,5413,NA,NA,27947,28262,10622,11684,NA,27949,22493,NA,NA,NA,NA,2376,NA,NA,28262,NA,11238,21780,NA,27949,Runtime for Android template,9,4580,11,0.125,no,1280,-1.271333826
83.33333333,83.33333333,25,426.6666667,426.6666667,#000000,no,1,droid,legacy,legacy,0,I confirm that my participation has been explained and consent to taking part in the experiment,relative,1,undefined,undefined,1,0,1,0,27,27,0,0,0,27,0,0,0,0,0,0,NA,0,27,0,0,0,NA,27,947,323,04/03/2018 11:29,A template containing a practice and an experimental phase,96,no,800,1280,15.72330189,yes,Exp_10_working.osexp,C:\Users\russe\Dropbox,no,mono,no,32,no,#ffffff,no,I confirm that my participation has been explained and consent to taking part in the experiment,NA,4,yes,800,nh,droid,11,15,11,C:/Users/russe/Dropbox/Exp_10/subject-3.csv,droid,Jazzy James,3.1.7,0,11,NA,1,NA,1,1,NA,11,540,NA,614,NA,446,712,NA,540,2,legacy,Male,1024,2,48000,-16,experiment,3,odd,droid,5413,NA,NA,28326,28870,10622,11684,NA,28328,22493,NA,NA,NA,NA,2376,NA,NA,28870,NA,11238,21780,NA,28328,Runtime for Android template,10,5120,12,0.8,no,1280,0.898584803
84.61538462,84.61538462,25,430.1538462,430.1538462,#000000,no,1,droid,legacy,legacy,0,I confirm that my participation has been explained and consent to taking part in the experiment,relative,1,undefined,undefined,1,0,1,0,28,28,0,0,0,28,0,0,0,0,0,0,NA,0,28,0,0,0,NA,28,270,510,04/03/2018 11:29,A template containing a practice and an experimental phase,96,no,800,1280,15.72330189,yes,Exp_10_working.osexp,C:\Users\russe\Dropbox,no,mono,no,32,no,#ffffff,no,I confirm that my participation has been explained and consent to taking part in the experiment,NA,1,yes,800,hi,droid,12,15,14,C:/Users/russe/Dropbox/Exp_10/subject-3.csv,droid,Jazzy James,3.1.7,0,14,NA,1,NA,1,1,NA,14,472,NA,614,NA,446,712,NA,472,2,legacy,Male,1024,2,48000,-16,experiment,3,odd,droid,5413,NA,NA,28939,29414,10622,11684,NA,28940,22493,NA,NA,NA,NA,2376,NA,NA,29414,NA,11238,21780,NA,28940,Runtime for Android template,11,5592,13,0.07692,no,1280,0.254242153
85.71428571,85.71428571,25,428.7857143,428.7857143,#000000,no,1,droid,legacy,legacy,0,I confirm that my participation has been explained and consent to taking part in the experiment,relative,1,undefined,undefined,1,0,1,0,29,29,0,0,0,29,0,0,0,0,0,0,NA,0,29,0,0,0,NA,29,708,68,04/03/2018 11:29,A template containing a practice and an experimental phase,96,no,800,1280,15.72330189,yes,Exp_10_working.osexp,C:\Users\russe\Dropbox,no,mono,no,32,no,#ffffff,no,I confirm that my participation has been explained and consent to taking part in the experiment,NA,1,yes,800,ic,droid,13,15,4,C:/Users/russe/Dropbox/Exp_10/subject-3.csv,droid,Jazzy James,3.1.7,0,4,NA,1,NA,1,1,NA,4,411,NA,614,NA,446,712,NA,411,2,legacy,Male,1024,2,48000,-16,experiment,3,odd,droid,5413,NA,NA,29607,30022,10622,11684,NA,29609,22493,NA,NA,NA,NA,2376,NA,NA,30022,NA,11238,21780,NA,29609,Runtime for Android template,12,6003,14,1,no,1280,-0.323771106
86.66666667,86.66666667,25,425.6,425.6,#000000,no,1,droid,legacy,legacy,0,I confirm that my participation has been explained and consent to taking part in the experiment,relative,1,undefined,undefined,1,0,1,0,30,30,0,0,0,30,0,0,0,0,0,0,NA,0,30,0,0,0,NA,30,780,349,04/03/2018 11:29,A template containing a practice and an experimental phase,96,no,800,1280,15.72330189,yes,Exp_10_working.osexp,C:\Users\russe\Dropbox,no,mono,no,32,no,#ffffff,no,I confirm that my participation has been explained and consent to taking part in the experiment,NA,1,yes,800,cg,droid,14,15,10,C:/Users/russe/Dropbox/Exp_10/subject-3.csv,droid,Jazzy James,3.1.7,0,10,NA,1,NA,1,1,NA,10,381,NA,614,NA,446,712,NA,381,2,legacy,Male,1024,2,48000,-16,experiment,3,odd,droid,5413,NA,NA,30094,30478,10622,11684,NA,30095,22493,NA,NA,NA,NA,2376,NA,NA,30478,NA,11238,21780,NA,30095,Runtime for Android template,13,6384,15,0.1,no,1280,-0.608039922
87.5,87.5,25,430.875,430.875,#000000,no,1,droid,legacy,legacy,0,I confirm that my participation has been explained and consent to taking part in the experiment,relative,1,undefined,undefined,1,0,1,0,31,31,0,0,0,31,0,0,0,0,0,0,NA,0,31,0,0,0,NA,31,1007,512,04/03/2018 11:29,A template containing a practice and an experimental phase,96,no,800,1280,15.72330189,yes,Exp_10_working.osexp,C:\Users\russe\Dropbox,no,mono,no,32,no,#ffffff,no,I confirm that my participation has been explained and consent to taking part in the experiment,NA,1,yes,800,gl,droid,15,15,17,C:/Users/russe/Dropbox/Exp_10/subject-3.csv,droid,Jazzy James,3.1.7,0,17,NA,1,NA,1,1,NA,17,510,NA,614,NA,446,712,NA,510,2,legacy,Male,1024,2,48000,-16,experiment,3,odd,droid,5413,NA,NA,30533,31045,10622,11684,NA,30534,22493,NA,NA,NA,NA,2376,NA,NA,31045,NA,11238,21780,NA,30534,Runtime for Android template,14,6894,16,0.2,no,1280,0.614315987
88.23529412,88.23529412,25,431.9411765,431.9411765,#000000,no,1,droid,legacy,legacy,0,I confirm that my participation has been explained and consent to taking part in the experiment,relative,1,undefined,undefined,1,0,1,0,32,32,0,0,0,32,0,0,0,0,0,0,NA,0,32,0,0,0,NA,32,673,171,04/03/2018 11:29,A template containing a practice and an experimental phase,96,no,800,1280,15.72330189,yes,Exp_10_working.osexp,C:\Users\russe\Dropbox,no,mono,no,32,no,#ffffff,no,I confirm that my participation has been explained and consent to taking part in the experiment,NA,1,yes,800,lc,droid,16,15,4,C:/Users/russe/Dropbox/Exp_10/subject-3.csv,droid,Jazzy James,3.1.7,0,4,NA,1,NA,1,1,NA,4,449,NA,614,NA,446,712,NA,449,2,legacy,Male,1024,2,48000,-16,experiment,3,odd,droid,5413,NA,NA,31201,31655,10622,11684,NA,31202,22493,NA,NA,NA,NA,2376,NA,NA,31655,NA,11238,21780,NA,31203,Runtime for Android template,15,7343,17,0.25,no,1280,0.036302728
88.88888889,88.88888889,25,433.5555556,433.5555556,#000000,no,1,droid,legacy,legacy,0,I confirm that my participation has been explained and consent to taking part in the experiment,relative,1,undefined,undefined,1,0,1,0,33,33,0,0,0,33,0,0,0,0,0,0,NA,0,33,0,0,0,NA,33,711,699,04/03/2018 11:29,A template containing a practice and an experimental phase,96,no,800,1280,15.72330189,yes,Exp_10_working.osexp,C:\Users\russe\Dropbox,no,mono,no,32,no,#ffffff,no,I confirm that my participation has been explained and consent to taking part in the experiment,NA,3,yes,800,co,droid,17,15,22,C:/Users/russe/Dropbox/Exp_10/subject-3.csv,droid,Jazzy James,3.1.7,0,22,NA,1,NA,1,1,NA,22,461,NA,614,NA,446,712,NA,461,2,legacy,Male,1024,2,48000,-16,experiment,3,odd,droid,5413,NA,NA,31717,32182,10622,11684,NA,31719,22493,NA,NA,NA,NA,2376,NA,NA,32182,NA,11238,21780,NA,31719,Runtime for Android template,16,7804,18,0.3,no,1280,0.150010254
89.47368421,89.47368421,25,433.2631579,433.2631579,#000000,no,1,droid,legacy,legacy,0,I confirm that my participation has been explained and consent to taking part in the experiment,relative,1,undefined,undefined,1,0,1,0,34,34,0,0,0,34,0,0,0,0,0,0,NA,0,34,0,0,0,NA,34,946,301,04/03/2018 11:29,A template containing a practice and an experimental phase,96,no,800,1280,15.72330189,yes,Exp_10_working.osexp,C:\Users\russe\Dropbox,no,mono,no,32,no,#ffffff,no,I confirm that my participation has been explained and consent to taking part in the experiment,NA,1,yes,800,oh,droid,18,15,11,C:/Users/russe/Dropbox/Exp_10/subject-3.csv,droid,Jazzy James,3.1.7,0,11,NA,1,NA,1,1,NA,11,428,NA,614,NA,446,712,NA,428,2,legacy,Male,1024,2,48000,-16,experiment,3,odd,droid,5413,NA,NA,32246,32678,10622,11684,NA,32247,22493,NA,NA,NA,NA,2376,NA,NA,32678,NA,11238,21780,NA,32248,Runtime for Android template,17,8232,19,0.0625,no,1280,-0.162685444
90,90,25,436.85,436.85,#000000,no,1,droid,legacy,legacy,0,I confirm that my participation has been explained and consent to taking part in the experiment,relative,1,undefined,undefined,1,0,1,0,35,35,0,0,0,35,0,0,0,0,0,0,NA,0,35,0,0,0,NA,35,549,486,04/03/2018 11:29,A template containing a practice and an experimental phase,96,no,800,1280,15.72330189,yes,Exp_10_working.osexp,C:\Users\russe\Dropbox,no,mono,no,32,no,#ffffff,no,I confirm that my participation has been explained and consent to taking part in the experiment,NA,2,yes,800,hj,droid,19,15,15,C:/Users/russe/Dropbox/Exp_10/subject-3.csv,droid,Jazzy James,3.1.7,0,15,NA,1,NA,1,1,NA,15,505,NA,614,NA,446,712,NA,505,2,legacy,Male,1024,2,48000,-16,experiment,3,odd,droid,5413,NA,NA,32794,33302,10622,11684,NA,32795,22493,NA,NA,NA,NA,2376,NA,NA,33302,NA,11238,21780,NA,32795,Runtime for Android template,18,8737,20,0.15385,no,1280,0.566937851
90.47619048,90.47619048,25,436.6666667,436.6666667,#000000,no,1,droid,legacy,legacy,0,I confirm that my participation has been explained and consent to taking part in the experiment,relative,1,undefined,undefined,1,0,1,0,36,36,0,0,0,36,0,0,0,0,0,0,NA,0,36,0,0,0,NA,36,774,723,04/03/2018 11:29,A template containing a practice and an experimental phase,96,no,800,1280,15.72330189,yes,Exp_10_working.osexp,C:\Users\russe\Dropbox,no,mono,no,32,no,#ffffff,no,I confirm that my participation has been explained and consent to taking part in the experiment,NA,2,yes,800,jo,droid,20,15,22,C:/Users/russe/Dropbox/Exp_10/subject-3.csv,droid,Jazzy James,3.1.7,0,22,NA,1,NA,1,1,NA,22,433,NA,614,NA,446,712,NA,433,2,legacy,Male,1024,2,48000,-16,experiment,3,odd,droid,5413,NA,NA,33369,33806,10622,11684,NA,33371,22493,NA,NA,NA,NA,2376,NA,NA,33806,NA,11238,21780,NA,33371,Runtime for Android template,19,9170,21,0.25,no,1280,-0.115307308
90.90909091,90.90909091,25,436.1818182,436.1818182,#000000,no,1,droid,legacy,legacy,0,I confirm that my participation has been explained and consent to taking part in the experiment,relative,1,undefined,undefined,1,0,1,0,37,37,0,0,0,37,0,0,0,0,0,0,NA,0,37,0,0,0,NA,37,295,327,04/03/2018 11:29,A template containing a practice and an experimental phase,96,no,800,1280,15.72330189,yes,Exp_10_working.osexp,C:\Users\russe\Dropbox,no,mono,no,32,no,#ffffff,no,I confirm that my participation has been explained and consent to taking part in the experiment,NA,2,yes,800,oe,droid,21,15,8,C:/Users/russe/Dropbox/Exp_10/subject-3.csv,droid,Jazzy James,3.1.7,0,8,NA,1,NA,1,1,NA,8,426,NA,614,NA,446,712,NA,426,2,legacy,Male,1024,2,48000,-16,experiment,3,odd,droid,5413,NA,NA,33880,34310,10622,11684,NA,33882,22493,NA,NA,NA,NA,2376,NA,NA,34310,NA,11238,21780,NA,33882,Runtime for Android template,20,9596,22,0.125,no,1280,-0.181636698
91.30434783,91.30434783,25,433.9565217,433.9565217,#000000,no,1,droid,legacy,legacy,0,I confirm that my participation has been explained and consent to taking part in the experiment,relative,1,undefined,undefined,1,0,1,0,38,38,0,0,0,38,0,0,0,0,0,0,NA,0,38,0,0,0,NA,38,558,274,04/03/2018 11:29,A template containing a practice and an experimental phase,96,no,800,1280,15.72330189,yes,Exp_10_working.osexp,C:\Users\russe\Dropbox,no,mono,no,32,no,#ffffff,no,I confirm that my participation has been explained and consent to taking part in the experiment,NA,1,yes,800,ef,droid,22,15,9,C:/Users/russe/Dropbox/Exp_10/subject-3.csv,droid,Jazzy James,3.1.7,0,9,NA,1,NA,1,1,NA,9,385,NA,614,NA,446,712,NA,385,2,legacy,Male,1024,2,48000,-16,experiment,3,odd,droid,5413,NA,NA,34377,34766,10622,11684,NA,34379,22493,NA,NA,NA,NA,2376,NA,NA,34766,NA,11238,21780,NA,34379,Runtime for Android template,21,9981,23,0.08333,no,1280,-0.570137413
91.66666667,91.66666667,25,433.3333333,433.3333333,#000000,no,1,droid,legacy,legacy,0,I confirm that my participation has been explained and consent to taking part in the experiment,relative,1,undefined,undefined,1,0,1,0,39,39,0,0,0,39,0,0,0,0,0,0,NA,0,39,0,0,0,NA,39,765,717,04/03/2018 11:29,A template containing a practice and an experimental phase,96,no,800,1280,15.72330189,yes,Exp_10_working.osexp,C:\Users\russe\Dropbox,no,mono,no,32,no,#ffffff,no,I confirm that my participation has been explained and consent to taking part in the experiment,NA,1,yes,800,fo,droid,23,15,22,C:/Users/russe/Dropbox/Exp_10/subject-3.csv,droid,Jazzy James,3.1.7,0,22,NA,1,NA,1,1,NA,22,419,NA,614,NA,446,712,NA,419,2,legacy,Male,1024,2,48000,-16,experiment,3,odd,droid,5413,NA,NA,34839,35262,10622,11684,NA,34841,22493,NA,NA,NA,NA,2376,NA,NA,35262,NA,11238,21780,NA,34841,Runtime for Android template,22,10400,24,0.33333,no,1280,-0.247966088
88,88,25,436.52,436.52,#000000,no,1,droid,legacy,legacy,0,I confirm that my participation has been explained and consent to taking part in the experiment,relative,0,undefined,undefined,0,0,1,0,40,40,0,0,0,40,0,0,0,0,0,0,NA,0,40,0,0,0,NA,40,175,717,04/03/2018 11:29,A template containing a practice and an experimental phase,96,no,800,1280,15.72330189,yes,Exp_10_working.osexp,C:\Users\russe\Dropbox,no,mono,no,32,no,#ffffff,no,I confirm that my participation has been explained and consent to taking part in the experiment,NA,1,yes,800,om,droid,24,15,20,C:/Users/russe/Dropbox/Exp_10/subject-3.csv,droid,Jazzy James,3.1.7,0,19,NA,1,NA,1,1,NA,19,513,NA,614,NA,446,712,NA,513,2,legacy,Male,1024,2,48000,-16,experiment,3,odd,droid,5413,NA,NA,35377,35894,10622,11684,NA,35379,22493,NA,NA,NA,NA,2376,NA,NA,35894,NA,11238,21780,NA,35379,Runtime for Android template,22,10913,25,0.0625,no,1280,0.642742868
88.46153846,88.46153846,25,436.8076923,436.8076923,#000000,no,1,droid,legacy,legacy,0,I confirm that my participation has been explained and consent to taking part in the experiment,relative,1,undefined,undefined,1,0,1,0,41,41,0,0,0,41,0,0,0,0,0,0,NA,0,41,0,0,0,NA,41,485,177,04/03/2018 11:29,A template containing a practice and an experimental phase,96,no,800,1280,15.72330189,yes,Exp_10_working.osexp,C:\Users\russe\Dropbox,no,mono,no,32,no,#ffffff,no,I confirm that my participation has been explained and consent to taking part in the experiment,NA,1,yes,800,mb,droid,25,15,3,C:/Users/russe/Dropbox/Exp_10/subject-3.csv,droid,Jazzy James,3.1.7,0,3,NA,1,NA,1,1,NA,3,444,NA,614,NA,446,712,NA,444,2,legacy,Male,1024,2,48000,-16,experiment,3,odd,droid,5413,NA,NA,36030,36478,10622,11684,NA,36032,22493,NA,NA,NA,NA,2376,NA,NA,36478,NA,11238,21780,NA,36032,Runtime for Android template,23,11357,26,0.11111,no,1280,-0.011075408
88.88888889,88.88888889,25,435.6296296,435.6296296,#000000,no,1,droid,legacy,legacy,0,I confirm that my participation has been explained and consent to taking part in the experiment,relative,1,undefined,undefined,1,0,1,0,42,42,0,0,0,42,0,0,0,0,0,0,NA,0,42,0,0,0,NA,42,1001,291,04/03/2018 11:29,A template containing a practice and an experimental phase,96,no,800,1280,15.72330189,yes,Exp_10_working.osexp,C:\Users\russe\Dropbox,no,mono,no,32,no,#ffffff,no,I confirm that my participation has been explained and consent to taking part in the experiment,NA,1,yes,800,bh,droid,26,15,11,C:/Users/russe/Dropbox/Exp_10/subject-3.csv,droid,Jazzy James,3.1.7,0,11,NA,1,NA,1,1,NA,11,405,NA,614,NA,446,712,NA,405,2,legacy,Male,1024,2,48000,-16,experiment,3,odd,droid,5413,NA,NA,36653,37061,10622,11684,NA,36655,22493,NA,NA,NA,NA,2376,NA,NA,37061,NA,11238,21780,NA,36655,Runtime for Android template,24,11762,27,0.125,no,1280,-0.380624869
89.28571429,89.28571429,25,437.25,437.25,#000000,no,1,droid,legacy,legacy,0,I confirm that my participation has been explained and consent to taking part in the experiment,relative,1,undefined,undefined,1,0,1,0,43,43,0,0,0,43,0,0,0,0,0,0,NA,0,43,0,0,0,NA,43,964,272,04/03/2018 11:29,A template containing a practice and an experimental phase,96,no,800,1280,15.72330189,yes,Exp_10_working.osexp,C:\Users\russe\Dropbox,no,mono,no,32,no,#ffffff,no,I confirm that my participation has been explained and consent to taking part in the experiment,NA,1,yes,800,hh,droid,27,15,11,C:/Users/russe/Dropbox/Exp_10/subject-3.csv,droid,Jazzy James,3.1.7,0,11,NA,1,NA,1,1,NA,11,481,NA,614,NA,446,712,NA,481,2,legacy,Male,1024,2,48000,-16,experiment,3,odd,droid,5413,NA,NA,37233,37718,10622,11684,NA,37235,22493,NA,NA,NA,NA,2376,NA,NA,37718,NA,11238,21780,NA,37235,Runtime for Android template,25,12243,28,0.07692,no,1280,0.339522798
89.65517241,89.65517241,25,439,439,#000000,no,1,droid,legacy,legacy,0,I confirm that my participation has been explained and consent to taking part in the experiment,relative,1,undefined,undefined,1,0,1,0,44,44,0,0,0,44,0,0,0,0,0,0,NA,0,44,0,0,0,NA,44,728,93,04/03/2018 11:29,A template containing a practice and an experimental phase,96,no,800,1280,15.72330189,yes,Exp_10_working.osexp,C:\Users\russe\Dropbox,no,mono,no,32,no,#ffffff,no,I confirm that my participation has been explained and consent to taking part in the experiment,NA,1,yes,800,hc,droid,28,15,4,C:/Users/russe/Dropbox/Exp_10/subject-3.csv,droid,Jazzy James,3.1.7,0,4,NA,1,NA,1,1,NA,4,488,NA,614,NA,446,712,NA,488,2,legacy,Male,1024,2,48000,-16,experiment,3,odd,droid,5413,NA,NA,37866,38358,10622,11684,NA,37868,22493,NA,NA,NA,NA,2376,NA,NA,38358,NA,11238,21780,NA,37868,Runtime for Android template,26,12731,29,0.07692,no,1280,0.405852188
90,90,25,439.9,439.9,#000000,no,1,droid,legacy,legacy,0,I confirm that my participation has been explained and consent to taking part in the experiment,relative,1,undefined,undefined,1,0,1,0,45,45,0,0,0,45,0,0,0,0,0,0,NA,0,45,0,0,0,NA,45,398,249,04/03/2018 11:29,A template containing a practice and an experimental phase,96,no,800,1280,15.72330189,yes,Exp_10_working.osexp,C:\Users\russe\Dropbox,no,mono,no,32,no,#ffffff,no,I confirm that my participation has been explained and consent to taking part in the experiment,NA,1,yes,800,ce,droid,29,15,8,C:/Users/russe/Dropbox/Exp_10/subject-3.csv,droid,Jazzy James,3.1.7,0,8,NA,1,NA,1,1,NA,8,466,NA,614,NA,446,712,NA,466,2,legacy,Male,1024,2,48000,-16,experiment,3,odd,droid,5413,NA,NA,38648,39117,10622,11684,NA,38650,22493,NA,NA,NA,NA,2376,NA,NA,39117,NA,11238,21780,NA,38650,Runtime for Android template,27,13197,30,0.1,no,1280,0.19738839
90.32258065,90.32258065,25,441.6129032,441.6129032,#000000,no,1,droid,legacy,legacy,0,I confirm that my participation has been explained and consent to taking part in the experiment,relative,1,undefined,undefined,1,0,1,0,46,46,0,0,0,46,0,0,0,0,0,0,NA,0,46,0,0,0,NA,46,716,40,04/03/2018 11:29,A template containing a practice and an experimental phase,96,no,800,1280,15.72330189,yes,Exp_10_working.osexp,C:\Users\russe\Dropbox,no,mono,no,32,no,#ffffff,no,I confirm that my participation has been explained and consent to taking part in the experiment,NA,1,yes,800,ec,droid,30,15,4,C:/Users/russe/Dropbox/Exp_10/subject-3.csv,droid,Jazzy James,3.1.7,0,4,NA,1,NA,1,1,NA,4,493,NA,614,NA,446,712,NA,493,2,legacy,Male,1024,2,48000,-16,experiment,3,odd,droid,5413,NA,NA,39261,39759,10622,11684,NA,39263,22493,NA,NA,NA,NA,2376,NA,NA,39759,NA,11238,21780,NA,39263,Runtime for Android template,28,13690,31,0.08333,no,1280,0.453230324
90.625,90.625,25,440.15625,440.15625,#000000,no,1,droid,legacy,legacy,0,I confirm that my participation has been explained and consent to taking part in the experiment,relative,1,undefined,undefined,1,0,1,0,47,47,0,0,0,47,0,0,0,0,0,0,NA,0,47,0,0,0,NA,47,726,99,04/03/2018 11:29,A template containing a practice and an experimental phase,96,no,800,1280,15.72330189,yes,Exp_10_working.osexp,C:\Users\russe\Dropbox,no,mono,no,32,no,#ffffff,no,I confirm that my participation has been explained and consent to taking part in the experiment,NA,1,yes,800,cc,droid,31,15,4,C:/Users/russe/Dropbox/Exp_10/subject-3.csv,droid,Jazzy James,3.1.7,0,4,NA,1,NA,1,1,NA,4,395,NA,614,NA,446,712,NA,395,2,legacy,Male,1024,2,48000,-16,experiment,3,odd,droid,5413,NA,NA,39967,40365,10622,11684,NA,39969,22493,NA,NA,NA,NA,2376,NA,NA,40365,NA,11238,21780,NA,39969,Runtime for Android template,29,14085,32,0.1,no,1280,-0.475381141
90.90909091,90.90909091,25,440.9393939,440.9393939,#000000,no,1,droid,legacy,legacy,0,I confirm that my participation has been explained and consent to taking part in the experiment,relative,1,undefined,undefined,1,0,1,0,48,48,0,0,0,48,0,0,0,0,0,0,NA,0,48,0,0,0,NA,48,928,295,04/03/2018 11:29,A template containing a practice and an experimental phase,96,no,800,1280,15.72330189,yes,Exp_10_working.osexp,C:\Users\russe\Dropbox,no,mono,no,32,no,#ffffff,no,I confirm that my participation has been explained and consent to taking part in the experiment,NA,1,yes,800,ch,droid,32,15,11,C:/Users/russe/Dropbox/Exp_10/subject-3.csv,droid,Jazzy James,3.1.7,0,11,NA,1,NA,1,1,NA,11,466,NA,614,NA,446,712,NA,466,2,legacy,Male,1024,2,48000,-16,experiment,3,odd,droid,5413,NA,NA,40456,40926,10622,11684,NA,40458,22493,NA,NA,NA,NA,2376,NA,NA,40926,NA,11238,21780,NA,40458,Runtime for Android template,30,14551,33,0.1,no,1280,0.19738839
91.17647059,91.17647059,25,443.7647059,443.7647059,#000000,no,1,droid,legacy,legacy,0,I confirm that my participation has been explained and consent to taking part in the experiment,relative,1,undefined,undefined,1,0,1,0,49,49,0,0,0,49,0,0,0,0,0,0,NA,0,49,0,0,0,NA,49,244,322,04/03/2018 11:29,A template containing a practice and an experimental phase,96,no,800,1280,15.72330189,yes,Exp_10_working.osexp,C:\Users\russe\Dropbox,no,mono,no,32,no,#ffffff,no,I confirm that my participation has been explained and consent to taking part in the experiment,NA,1,yes,800,he,droid,33,15,8,C:/Users/russe/Dropbox/Exp_10/subject-3.csv,droid,Jazzy James,3.1.7,0,8,NA,1,NA,1,1,NA,8,537,NA,614,NA,446,712,NA,537,2,legacy,Male,1024,2,48000,-16,experiment,3,odd,droid,5413,NA,NA,41192,41733,10622,11684,NA,41195,22493,NA,NA,NA,NA,2376,NA,NA,41733,NA,11238,21780,NA,41195,Runtime for Android template,31,15088,34,0.07692,no,1280,0.870157921
91.42857143,91.42857143,25,444.4571429,444.4571429,#000000,no,1,droid,legacy,legacy,0,I confirm that my participation has been explained and consent to taking part in the experiment,relative,1,undefined,undefined,1,0,1,0,50,50,0,0,0,50,0,0,0,0,0,0,NA,0,50,0,0,0,NA,50,1029,748,04/03/2018 11:29,A template containing a practice and an experimental phase,96,no,800,1280,15.72330189,yes,Exp_10_working.osexp,C:\Users\russe\Dropbox,no,mono,no,32,no,#ffffff,no,I confirm that my participation has been explained and consent to taking part in the experiment,NA,1,yes,800,ep,droid,34,15,23,C:/Users/russe/Dropbox/Exp_10/subject-3.csv,droid,Jazzy James,3.1.7,0,23,NA,1,NA,1,1,NA,23,468,NA,614,NA,446,712,NA,468,2,legacy,Male,1024,2,48000,-16,experiment,3,odd,droid,5413,NA,NA,42087,42557,10622,11684,NA,42088,22493,NA,NA,NA,NA,2376,NA,NA,42557,NA,11238,21780,NA,42088,Runtime for Android template,32,15556,35,0.08333,no,1280,0.216339644
91.66666667,91.66666667,25,447.8333333,447.8333333,#000000,no,1,droid,legacy,legacy,0,I confirm that my participation has been explained and consent to taking part in the experiment,relative,1,undefined,undefined,1,0,1,0,51,51,0,0,0,51,0,0,0,0,0,0,NA,0,51,0,0,0,NA,51,547,300,04/03/2018 11:29,A template containing a practice and an experimental phase,96,no,800,1280,15.72330189,yes,Exp_10_working.osexp,C:\Users\russe\Dropbox,no,mono,no,32,no,#ffffff,no,I confirm that my participation has been explained and consent to taking part in the experiment,NA,1,yes,800,pf,droid,35,15,9,C:/Users/russe/Dropbox/Exp_10/subject-3.csv,droid,Jazzy James,3.1.7,0,9,NA,1,NA,1,1,NA,9,566,NA,614,NA,446,712,NA,566,2,legacy,Male,1024,2,48000,-16,experiment,3,odd,droid,5413,NA,NA,42741,43310,10622,11684,NA,42742,22493,NA,NA,NA,NA,2376,NA,NA,43310,NA,11238,21780,NA,42742,Runtime for Android template,33,16122,36,0.2,no,1280,1.14495111
91.89189189,91.89189189,25,446.4324324,446.4324324,#000000,no,1,droid,legacy,legacy,0,I confirm that my participation has been explained and consent to taking part in the experiment,relative,1,undefined,undefined,1,0,1,0,52,52,0,0,0,52,0,0,0,0,0,0,NA,0,52,0,0,0,NA,52,318,340,04/03/2018 11:29,A template containing a practice and an experimental phase,96,no,800,1280,15.72330189,yes,Exp_10_working.osexp,C:\Users\russe\Dropbox,no,mono,no,32,no,#ffffff,no,I confirm that my participation has been explained and consent to taking part in the experiment,NA,1,yes,800,fe,droid,36,15,8,C:/Users/russe/Dropbox/Exp_10/subject-3.csv,droid,Jazzy James,3.1.7,0,8,NA,1,NA,1,1,NA,8,396,NA,614,NA,446,712,NA,396,2,legacy,Male,1024,2,48000,-16,experiment,3,odd,droid,5413,NA,NA,43470,43870,10622,11684,NA,43472,22493,NA,NA,NA,NA,2376,NA,NA,43870,NA,11238,21780,NA,43472,Runtime for Android template,34,16518,37,0.33333,no,1280,-0.465905514
92.10526316,92.10526316,25,446.7368421,446.7368421,#000000,no,1,droid,legacy,legacy,0,I confirm that my participation has been explained and consent to taking part in the experiment,relative,1,undefined,undefined,1,0,1,0,53,53,0,0,0,53,0,0,0,0,0,0,NA,0,53,0,0,0,NA,53,999,270,04/03/2018 11:29,A template containing a practice and an experimental phase,96,no,800,1280,15.72330189,yes,Exp_10_working.osexp,C:\Users\russe\Dropbox,no,mono,no,32,no,#ffffff,no,I confirm that my participation has been explained and consent to taking part in the experiment,NA,1,yes,800,eh,droid,37,15,11,C:/Users/russe/Dropbox/Exp_10/subject-3.csv,droid,Jazzy James,3.1.7,0,11,NA,1,NA,1,1,NA,11,458,NA,614,NA,446,712,NA,458,2,legacy,Male,1024,2,48000,-16,experiment,3,odd,droid,5413,NA,NA,43937,44398,10622,11684,NA,43938,22493,NA,NA,NA,NA,2376,NA,NA,44398,NA,11238,21780,NA,43938,Runtime for Android template,35,16976,38,0.08333,no,1280,0.121583372
92.30769231,92.30769231,25,448.9487179,448.9487179,#000000,no,1,droid,legacy,legacy,0,I confirm that my participation has been explained and consent to taking part in the experiment,relative,1,undefined,undefined,1,0,1,0,54,54,0,0,0,54,0,0,0,0,0,0,NA,0,54,0,0,0,NA,54,343,672,04/03/2018 11:29,A template containing a practice and an experimental phase,96,no,800,1280,15.72330189,yes,Exp_10_working.osexp,C:\Users\russe\Dropbox,no,mono,no,32,no,#ffffff,no,I confirm that my participation has been explained and consent to taking part in the experiment,NA,1,yes,800,hm,droid,38,15,20,C:/Users/russe/Dropbox/Exp_10/subject-3.csv,droid,Jazzy James,3.1.7,0,20,NA,1,NA,1,1,NA,20,533,NA,614,NA,446,712,NA,533,2,legacy,Male,1024,2,48000,-16,experiment,3,odd,droid,5413,NA,NA,44462,44999,10622,11684,NA,44463,22493,NA,NA,NA,NA,2376,NA,NA,44999,NA,11238,21780,NA,44463,Runtime for Android template,36,17509,39,0.07692,no,1280,0.832255412
92.5,92.5,25,448.425,448.425,#000000,no,1,droid,legacy,legacy,0,I confirm that my participation has been explained and consent to taking part in the experiment,relative,1,undefined,undefined,1,0,1,0,55,55,0,0,0,55,0,0,0,0,0,0,NA,0,55,0,0,0,NA,55,565,270,04/03/2018 11:29,A template containing a practice and an experimental phase,96,no,800,1280,15.72330189,yes,Exp_10_working.osexp,C:\Users\russe\Dropbox,no,mono,no,32,no,#ffffff,no,I confirm that my participation has been explained and consent to taking part in the experiment,NA,1,yes,800,mf,droid,39,15,9,C:/Users/russe/Dropbox/Exp_10/subject-3.csv,droid,Jazzy James,3.1.7,0,9,NA,1,NA,1,1,NA,9,428,NA,614,NA,446,712,NA,428,2,legacy,Male,1024,2,48000,-16,experiment,3,odd,droid,5413,NA,NA,45055,45486,10622,11684,NA,45056,22493,NA,NA,NA,NA,2376,NA,NA,45486,NA,11238,21780,NA,45056,Runtime for Android template,37,17937,40,0.11111,no,1280,-0.162685444
92.68292683,92.68292683,25,447.7560976,447.7560976,#000000,no,1,droid,legacy,legacy,0,I confirm that my participation has been explained and consent to taking part in the experiment,relative,1,undefined,undefined,1,0,1,0,56,56,0,0,0,56,0,0,0,0,0,0,NA,0,56,0,0,0,NA,56,300,726,04/03/2018 11:29,A template containing a practice and an experimental phase,96,no,800,1280,15.72330189,yes,Exp_10_working.osexp,C:\Users\russe\Dropbox,no,mono,no,32,no,#ffffff,no,I confirm that my participation has been explained and consent to taking part in the experiment,NA,1,yes,800,fm,droid,40,15,20,C:/Users/russe/Dropbox/Exp_10/subject-3.csv,droid,Jazzy James,3.1.7,0,20,NA,1,NA,1,1,NA,20,421,NA,614,NA,446,712,NA,421,2,legacy,Male,1024,2,48000,-16,experiment,3,odd,droid,5413,NA,NA,45565,45990,10622,11684,NA,45567,22493,NA,NA,NA,NA,2376,NA,NA,45990,NA,11238,21780,NA,45567,Runtime for Android template,38,18358,41,0.33333,no,1280,-0.229014834
92.85714286,92.85714286,25,448.5238095,448.5238095,#000000,no,1,droid,legacy,legacy,0,I confirm that my participation has been explained and consent to taking part in the experiment,relative,1,undefined,undefined,1,0,1,0,57,57,0,0,0,57,0,0,0,0,0,0,NA,0,57,0,0,0,NA,57,529,705,04/03/2018 11:29,A template containing a practice and an experimental phase,96,no,800,1280,15.72330189,yes,Exp_10_working.osexp,C:\Users\russe\Dropbox,no,mono,no,32,no,#ffffff,no,I confirm that my participation has been explained and consent to taking part in the experiment,NA,1,yes,800,mn,droid,41,15,21,C:/Users/russe/Dropbox/Exp_10/subject-3.csv,droid,Jazzy James,3.1.7,0,21,NA,1,NA,1,1,NA,21,480,NA,614,NA,446,712,NA,480,2,legacy,Male,1024,2,48000,-16,experiment,3,odd,droid,5413,NA,NA,46042,46526,10622,11684,NA,46044,22493,NA,NA,NA,NA,2376,NA,NA,46526,NA,11238,21780,NA,46044,Runtime for Android template,39,18838,42,0.11111,no,1280,0.330047171
93.02325581,93.02325581,25,448.3255814,448.3255814,#000000,no,1,droid,legacy,legacy,0,I confirm that my participation has been explained and consent to taking part in the experiment,relative,1,undefined,undefined,1,0,1,0,58,58,0,0,0,58,0,0,0,0,0,0,NA,0,58,0,0,0,NA,58,941,359,04/03/2018 11:29,A template containing a practice and an experimental phase,96,no,800,1280,15.72330189,yes,Exp_10_working.osexp,C:\Users\russe\Dropbox,no,mono,no,32,no,#ffffff,no,I confirm that my participation has been explained and consent to taking part in the experiment,NA,4,yes,800,nh,droid,42,15,11,C:/Users/russe/Dropbox/Exp_10/subject-3.csv,droid,Jazzy James,3.1.7,0,11,NA,1,NA,1,1,NA,11,440,NA,614,NA,446,712,NA,440,2,legacy,Male,1024,2,48000,-16,experiment,3,odd,droid,5413,NA,NA,46603,47045,10622,11684,NA,46604,22493,NA,NA,NA,NA,2376,NA,NA,47045,NA,11238,21780,NA,46604,Runtime for Android template,40,19278,43,0.8,no,1280,-0.048977917
93.18181818,93.18181818,25,450.8409091,450.8409091,#000000,no,1,droid,legacy,legacy,0,I confirm that my participation has been explained and consent to taking part in the experiment,relative,1,undefined,undefined,1,0,1,0,59,59,0,0,0,59,0,0,0,0,0,0,NA,0,59,0,0,0,NA,59,934,489,04/03/2018 11:29,A template containing a practice and an experimental phase,96,no,800,1280,15.72330189,yes,Exp_10_working.osexp,C:\Users\russe\Dropbox,no,mono,no,32,no,#ffffff,no,I confirm that my participation has been explained and consent to taking part in the experiment,NA,1,yes,800,hl,droid,43,15,17,C:/Users/russe/Dropbox/Exp_10/subject-3.csv,droid,Jazzy James,3.1.7,0,17,NA,1,NA,1,1,NA,17,559,NA,614,NA,446,712,NA,559,2,legacy,Male,1024,2,48000,-16,experiment,3,odd,droid,5413,NA,NA,47203,47766,10622,11684,NA,47205,22493,NA,NA,NA,NA,2376,NA,NA,47766,NA,11238,21780,NA,47205,Runtime for Android template,41,19837,44,0.07692,no,1280,1.07862172
93.33333333,93.33333333,25,449.8222222,449.8222222,#000000,no,1,droid,legacy,legacy,0,I confirm that my participation has been explained and consent to taking part in the experiment,relative,1,undefined,undefined,1,0,1,0,60,60,0,0,0,60,0,0,0,0,0,0,NA,0,60,0,0,0,NA,60,704,484,04/03/2018 11:29,A template containing a practice and an experimental phase,96,no,800,1280,15.72330189,yes,Exp_10_working.osexp,C:\Users\russe\Dropbox,no,mono,no,32,no,#ffffff,no,I confirm that my participation has been explained and consent to taking part in the experiment,NA,1,yes,800,lk,droid,44,15,16,C:/Users/russe/Dropbox/Exp_10/subject-3.csv,droid,Jazzy James,3.1.7,0,16,NA,1,NA,1,1,NA,16,405,NA,614,NA,446,712,NA,405,2,legacy,Male,1024,2,48000,-16,experiment,3,odd,droid,5413,NA,NA,47837,48246,10622,11684,NA,47839,22493,NA,NA,NA,NA,2376,NA,NA,48246,NA,11238,21780,NA,47839,Runtime for Android template,42,20242,45,0.25,no,1280,-0.380624869
93.47826087,93.47826087,25,449.7608696,449.7608696,#000000,no,1,droid,legacy,legacy,0,I confirm that my participation has been explained and consent to taking part in the experiment,relative,1,undefined,undefined,1,0,1,0,61,61,0,0,0,61,0,0,0,0,0,0,NA,0,61,0,0,0,NA,61,719,507,04/03/2018 11:29,A template containing a practice and an experimental phase,96,no,800,1280,15.72330189,yes,Exp_10_working.osexp,C:\Users\russe\Dropbox,no,mono,no,32,no,#ffffff,no,I confirm that my participation has been explained and consent to taking part in the experiment,NA,1,yes,800,kk,droid,45,15,16,C:/Users/russe/Dropbox/Exp_10/subject-3.csv,droid,Jazzy James,3.1.7,0,16,NA,1,NA,1,1,NA,16,447,NA,614,NA,446,712,NA,447,2,legacy,Male,1024,2,48000,-16,experiment,3,odd,droid,5413,NA,NA,48355,48806,10622,11684,NA,48357,22493,NA,NA,NA,NA,2376,NA,NA,48806,NA,11238,21780,NA,48357,Runtime for Android template,43,20689,46,0.125,no,1280,0.017351473
93.61702128,93.61702128,25,450.2340426,450.2340426,#000000,no,1,droid,legacy,legacy,0,I confirm that my participation has been explained and consent to taking part in the experiment,relative,1,undefined,undefined,1,0,1,0,62,62,0,0,0,62,0,0,0,0,0,0,NA,0,62,0,0,0,NA,62,989,312,04/03/2018 11:29,A template containing a practice and an experimental phase,96,no,800,1280,15.72330189,yes,Exp_10_working.osexp,C:\Users\russe\Dropbox,no,mono,no,32,no,#ffffff,no,I confirm that my participation has been explained and consent to taking part in the experiment,NA,2,yes,800,kh,droid,46,15,11,C:/Users/russe/Dropbox/Exp_10/subject-3.csv,droid,Jazzy James,3.1.7,0,11,NA,1,NA,1,1,NA,11,472,NA,614,NA,446,712,NA,472,2,legacy,Male,1024,2,48000,-16,experiment,3,odd,droid,5413,NA,NA,48906,49382,10622,11684,NA,48908,22493,NA,NA,NA,NA,2376,NA,NA,49382,NA,11238,21780,NA,48908,Runtime for Android template,44,21161,47,0.25,no,1280,0.254242153
93.75,93.75,25,450.3125,450.3125,#000000,no,1,droid,legacy,legacy,0,I confirm that my participation has been explained and consent to taking part in the experiment,relative,1,undefined,undefined,1,0,1,0,63,63,0,0,0,63,0,0,0,0,0,0,NA,0,63,0,0,0,NA,63,716,79,04/03/2018 11:29,A template containing a practice and an experimental phase,96,no,800,1280,15.72330189,yes,Exp_10_working.osexp,C:\Users\russe\Dropbox,no,mono,no,32,no,#ffffff,no,I confirm that my participation has been explained and consent to taking part in the experiment,NA,1,yes,800,hd,droid,47,15,4,C:/Users/russe/Dropbox/Exp_10/subject-3.csv,droid,Jazzy James,3.1.7,0,4,NA,1,NA,1,1,NA,4,454,NA,614,NA,446,712,NA,454,2,legacy,Male,1024,2,48000,-16,experiment,3,odd,droid,5413,NA,NA,49493,49950,10622,11684,NA,49494,22493,NA,NA,NA,NA,2376,NA,NA,49950,NA,11238,21780,NA,49494,Runtime for Android template,45,21615,48,0.07692,no,1280,0.083680864
93.87755102,93.87755102,25,450.6938776,450.6938776,#000000,no,1,droid,legacy,legacy,0,I confirm that my participation has been explained and consent to taking part in the experiment,relative,1,undefined,undefined,1,0,1,0,64,64,0,0,0,64,0,0,0,0,0,0,NA,0,64,0,0,0,NA,64,743,687,04/03/2018 11:29,A template containing a practice and an experimental phase,96,no,800,1280,15.72330189,yes,Exp_10_working.osexp,C:\Users\russe\Dropbox,no,mono,no,32,no,#ffffff,no,I confirm that my participation has been explained and consent to taking part in the experiment,NA,1,yes,800,do,droid,48,15,22,C:/Users/russe/Dropbox/Exp_10/subject-3.csv,droid,Jazzy James,3.1.7,0,22,NA,1,NA,1,1,NA,22,469,NA,614,NA,446,712,NA,469,2,legacy,Male,1024,2,48000,-16,experiment,3,odd,droid,5413,NA,NA,50005,50478,10622,11684,NA,50007,22493,NA,NA,NA,NA,2376,NA,NA,50478,NA,11238,21780,NA,50007,Runtime for Android template,46,22084,49,0.33333,no,1280,0.225815272
94,94,25,450.36,450.36,#000000,no,1,droid,legacy,legacy,0,I confirm that my participation has been explained and consent to taking part in the experiment,relative,1,undefined,undefined,1,0,1,0,65,65,0,0,0,65,0,0,0,0,0,0,NA,0,65,0,0,0,NA,65,547,686,04/03/2018 11:29,A template containing a practice and an experimental phase,96,no,800,1280,15.72330189,yes,Exp_10_working.osexp,C:\Users\russe\Dropbox,no,mono,no,32,no,#ffffff,no,I confirm that my participation has been explained and consent to taking part in the experiment,NA,1,yes,800,on,droid,49,15,21,C:/Users/russe/Dropbox/Exp_10/subject-3.csv,droid,Jazzy James,3.1.7,0,21,NA,1,NA,1,1,NA,21,434,NA,614,NA,446,712,NA,434,2,legacy,Male,1024,2,48000,-16,experiment,3,odd,droid,5413,NA,NA,50544,50982,10622,11684,NA,50546,22493,NA,NA,NA,NA,2376,NA,NA,50982,NA,11238,21780,NA,50546,Runtime for Android template,47,22518,50,0.0625,no,1280,-0.10583168
94.11764706,94.11764706,25,448.8823529,448.8823529,#000000,no,1,droid,legacy,legacy,0,I confirm that my participation has been explained and consent to taking part in the experiment,relative,1,undefined,undefined,1,0,1,0,66,66,0,0,0,66,0,0,0,0,0,0,NA,0,66,0,0,0,NA,66,770,477,04/03/2018 11:29,A template containing a practice and an experimental phase,96,no,800,1280,15.72330189,yes,Exp_10_working.osexp,C:\Users\russe\Dropbox,no,mono,no,32,no,#ffffff,no,I confirm that my participation has been explained and consent to taking part in the experiment,NA,1,yes,800,nk,droid,50,15,16,C:/Users/russe/Dropbox/Exp_10/subject-3.csv,droid,Jazzy James,3.1.7,0,16,NA,1,NA,1,1,NA,16,375,NA,614,NA,446,712,NA,375,2,legacy,Male,1024,2,48000,-16,experiment,3,odd,droid,5413,NA,NA,51083,51462,10622,11684,NA,51084,22493,NA,NA,NA,NA,2376,NA,NA,51462,NA,11238,21780,NA,51085,Runtime for Android template,48,22893,51,0.2,no,1280,-0.664893685
94.23076923,94.23076923,25,449.3653846,449.3653846,#000000,no,1,droid,legacy,legacy,0,I confirm that my participation has been explained and consent to taking part in the experiment,relative,1,undefined,undefined,1,0,1,0,67,67,0,0,0,67,0,0,0,0,0,0,NA,0,67,0,0,0,NA,67,334,281,04/03/2018 11:29,A template containing a practice and an experimental phase,96,no,800,1280,15.72330189,yes,Exp_10_working.osexp,C:\Users\russe\Dropbox,no,mono,no,32,no,#ffffff,no,I confirm that my participation has been explained and consent to taking part in the experiment,NA,1,yes,800,ke,droid,51,15,8,C:/Users/russe/Dropbox/Exp_10/subject-3.csv,droid,Jazzy James,3.1.7,0,8,NA,1,NA,1,1,NA,8,474,NA,614,NA,446,712,NA,474,2,legacy,Male,1024,2,48000,-16,experiment,3,odd,droid,5413,NA,NA,51576,52054,10622,11684,NA,51578,22493,NA,NA,NA,NA,2376,NA,NA,52054,NA,11238,21780,NA,51578,Runtime for Android template,49,23367,52,0.125,no,1280,0.273193408
94.33962264,94.33962264,25,448.8679245,448.8679245,#000000,no,1,droid,legacy,legacy,0,I confirm that my participation has been explained and consent to taking part in the experiment,relative,1,undefined,undefined,1,0,1,0,68,68,0,0,0,68,0,0,0,0,0,0,NA,0,68,0,0,0,NA,68,781,669,04/03/2018 11:29,A template containing a practice and an experimental phase,96,no,800,1280,15.72330189,yes,Exp_10_working.osexp,C:\Users\russe\Dropbox,no,mono,no,32,no,#ffffff,no,I confirm that my participation has been explained and consent to taking part in the experiment,NA,1,yes,800,eo,droid,52,15,22,C:/Users/russe/Dropbox/Exp_10/subject-3.csv,droid,Jazzy James,3.1.7,0,22,NA,1,NA,1,1,NA,22,423,NA,614,NA,446,712,NA,423,2,legacy,Male,1024,2,48000,-16,experiment,3,odd,droid,5413,NA,NA,52187,52614,10622,11684,NA,52189,22493,NA,NA,NA,NA,2376,NA,NA,52614,NA,11238,21780,NA,52189,Runtime for Android template,50,23790,53,0.08333,no,1280,-0.21006358
94.44444444,94.44444444,25,451.037037,451.037037,#000000,no,1,droid,legacy,legacy,0,I confirm that my participation has been explained and consent to taking part in the experiment,relative,1,undefined,undefined,1,0,1,0,69,69,0,0,0,69,0,0,0,0,0,0,NA,0,69,0,0,0,NA,69,330,71,04/03/2018 11:29,A template containing a practice and an experimental phase,96,no,800,1280,15.72330189,yes,Exp_10_working.osexp,C:\Users\russe\Dropbox,no,mono,no,32,no,#ffffff,no,I confirm that my participation has been explained and consent to taking part in the experiment,NA,4,yes,800,oa,droid,53,15,2,C:/Users/russe/Dropbox/Exp_10/subject-3.csv,droid,Jazzy James,3.1.7,0,2,NA,1,NA,1,1,NA,2,566,NA,614,NA,446,712,NA,566,2,legacy,Male,1024,2,48000,-16,experiment,3,odd,droid,5413,NA,NA,52884,53455,10622,11684,NA,52885,22493,NA,NA,NA,NA,2376,NA,NA,53455,NA,11238,21780,NA,52886,Runtime for Android template,51,24356,54,0.25,no,1280,1.14495111
94.54545455,94.54545455,25,449.3818182,449.3818182,#000000,no,1,droid,legacy,legacy,0,I confirm that my participation has been explained and consent to taking part in the experiment,relative,1,undefined,undefined,1,0,1,0,70,70,0,0,0,70,0,0,0,0,0,0,NA,0,70,0,0,0,NA,70,328,325,04/03/2018 11:29,A template containing a practice and an experimental phase,96,no,800,1280,15.72330189,yes,Exp_10_working.osexp,C:\Users\russe\Dropbox,no,mono,no,32,no,#ffffff,no,I confirm that my participation has been explained and consent to taking part in the experiment,NA,1,yes,800,ae,droid,54,15,8,C:/Users/russe/Dropbox/Exp_10/subject-3.csv,droid,Jazzy James,3.1.7,0,8,NA,1,NA,1,1,NA,8,360,NA,614,NA,446,712,NA,360,2,legacy,Male,1024,2,48000,-16,experiment,3,odd,droid,5413,NA,NA,53594,53958,10622,11684,NA,53595,22493,NA,NA,NA,NA,2376,NA,NA,53958,NA,11238,21780,NA,53596,Runtime for Android template,52,24716,55,0.16667,no,1280,-0.807028093
94.64285714,94.64285714,25,449.7857143,449.7857143,#000000,no,1,droid,legacy,legacy,0,I confirm that my participation has been explained and consent to taking part in the experiment,relative,1,undefined,undefined,1,0,1,0,71,71,0,0,0,71,0,0,0,0,0,0,NA,0,71,0,0,0,NA,71,402,616,04/03/2018 11:29,A template containing a practice and an experimental phase,96,no,800,1280,15.72330189,yes,Exp_10_working.osexp,C:\Users\russe\Dropbox,no,mono,no,32,no,#ffffff,no,I confirm that my participation has been explained and consent to taking part in the experiment,NA,1,yes,800,em,droid,55,15,20,C:/Users/russe/Dropbox/Exp_10/subject-3.csv,droid,Jazzy James,3.1.7,0,20,NA,1,NA,1,1,NA,20,472,NA,614,NA,446,712,NA,472,2,legacy,Male,1024,2,48000,-16,experiment,3,odd,droid,5413,NA,NA,54082,54558,10622,11684,NA,54084,22493,NA,NA,NA,NA,2376,NA,NA,54558,NA,11238,21780,NA,54084,Runtime for Android template,53,25188,56,0.08333,no,1280,0.254242153
94.73684211,94.73684211,25,449.2105263,449.2105263,#000000,no,1,droid,legacy,legacy,0,I confirm that my participation has been explained and consent to taking part in the experiment,relative,1,undefined,undefined,1,0,1,0,72,72,0,0,0,72,0,0,0,0,0,0,NA,0,72,0,0,0,NA,72,737,704,04/03/2018 11:29,A template containing a practice and an experimental phase,96,no,800,1280,15.72330189,yes,Exp_10_working.osexp,C:\Users\russe\Dropbox,no,mono,no,32,no,#ffffff,no,I confirm that my participation has been explained and consent to taking part in the experiment,NA,2,yes,800,mo,droid,56,15,22,C:/Users/russe/Dropbox/Exp_10/subject-3.csv,droid,Jazzy James,3.1.7,0,22,NA,1,NA,1,1,NA,22,417,NA,614,NA,446,712,NA,417,2,legacy,Male,1024,2,48000,-16,experiment,3,odd,droid,5413,NA,NA,54698,55118,10622,11684,NA,54699,22493,NA,NA,NA,NA,2376,NA,NA,55118,NA,11238,21780,NA,54699,Runtime for Android template,54,25605,57,0.22222,no,1280,-0.266917343
94.82758621,94.82758621,25,448.3965517,448.3965517,#000000,no,1,droid,legacy,legacy,0,I confirm that my participation has been explained and consent to taking part in the experiment,relative,1,undefined,undefined,1,0,1,0,73,73,0,0,0,73,0,0,0,0,0,0,NA,0,73,0,0,0,NA,73,741,694,04/03/2018 11:29,A template containing a practice and an experimental phase,96,no,800,1280,15.72330189,yes,Exp_10_working.osexp,C:\Users\russe\Dropbox,no,mono,no,32,no,#ffffff,no,I confirm that my participation has been explained and consent to taking part in the experiment,NA,1,yes,800,oo,droid,57,15,22,C:/Users/russe/Dropbox/Exp_10/subject-3.csv,droid,Jazzy James,3.1.7,0,22,NA,1,NA,1,1,NA,22,402,NA,614,NA,446,712,NA,402,2,legacy,Male,1024,2,48000,-16,experiment,3,odd,droid,5413,NA,NA,55207,55615,10622,11684,NA,55210,22493,NA,NA,NA,NA,2376,NA,NA,55615,NA,11238,21780,NA,55210,Runtime for Android template,55,26007,58,0.0625,no,1280,-0.409051751
94.91525424,94.91525424,25,448.7966102,448.7966102,#000000,no,1,droid,legacy,legacy,0,I confirm that my participation has been explained and consent to taking part in the experiment,relative,1,undefined,undefined,1,0,1,0,74,74,0,0,0,74,0,0,0,0,0,0,NA,0,74,0,0,0,NA,74,1040,744,04/03/2018 11:29,A template containing a practice and an experimental phase,96,no,800,1280,15.72330189,yes,Exp_10_working.osexp,C:\Users\russe\Dropbox,no,mono,no,32,no,#ffffff,no,I confirm that my participation has been explained and consent to taking part in the experiment,NA,1,yes,800,op,droid,58,15,23,C:/Users/russe/Dropbox/Exp_10/subject-3.csv,droid,Jazzy James,3.1.7,0,23,NA,1,NA,1,1,NA,23,472,NA,614,NA,446,712,NA,472,2,legacy,Male,1024,2,48000,-16,experiment,3,odd,droid,5413,NA,NA,55730,56207,10622,11684,NA,55732,22493,NA,NA,NA,NA,2376,NA,NA,56207,NA,11238,21780,NA,55732,Runtime for Android template,56,26479,59,0.0625,no,1280,0.254242153
95,95,25,448.65,448.65,#000000,no,1,droid,legacy,legacy,0,I confirm that my participation has been explained and consent to taking part in the experiment,relative,1,undefined,undefined,1,0,1,0,75,75,0,0,0,75,0,0,0,0,0,0,NA,0,75,0,0,0,NA,75,700,274,04/03/2018 11:29,A template containing a practice and an experimental phase,96,no,800,1280,15.72330189,yes,Exp_10_working.osexp,C:\Users\russe\Dropbox,no,mono,no,32,no,#ffffff,no,I confirm that my participation has been explained and consent to taking part in the experiment,NA,1,yes,800,pg,droid,59,15,10,C:/Users/russe/Dropbox/Exp_10/subject-3.csv,droid,Jazzy James,3.1.7,0,10,NA,1,NA,1,1,NA,10,440,NA,614,NA,446,712,NA,440,2,legacy,Male,1024,2,48000,-16,experiment,3,odd,droid,5413,NA,NA,56266,56710,10622,11684,NA,56268,22493,NA,NA,NA,NA,2376,NA,NA,56710,NA,11238,21780,NA,56268,Runtime for Android template,57,26919,60,0.2,no,1280,-0.048977917
93.44262295,93.44262295,25,448.147541,448.147541,#000000,no,1,droid,legacy,legacy,0,I confirm that my participation has been explained and consent to taking part in the experiment,relative,0,undefined,undefined,0,0,1,0,76,76,0,0,0,76,0,0,0,0,0,0,NA,0,76,0,0,0,NA,76,464,635,04/03/2018 11:29,A template containing a practice and an experimental phase,96,no,800,1280,15.72330189,yes,Exp_10_working.osexp,C:\Users\russe\Dropbox,no,mono,no,32,no,#ffffff,no,I confirm that my participation has been explained and consent to taking part in the experiment,NA,1,yes,800,gm,droid,60,15,20,C:/Users/russe/Dropbox/Exp_10/subject-3.csv,droid,Jazzy James,3.1.7,0,21,NA,1,NA,1,1,NA,21,418,NA,614,NA,446,712,NA,418,2,legacy,Male,1024,2,48000,-16,experiment,3,odd,droid,5413,NA,NA,56768,57190,10622,11684,NA,56770,22493,NA,NA,NA,NA,2376,NA,NA,57190,NA,11238,21780,NA,56770,Runtime for Android template,57,27337,61,0.2,no,1280,-0.257441716
93.5483871,93.5483871,25,448.5806452,448.5806452,#000000,no,1,droid,legacy,legacy,0,I confirm that my participation has been explained and consent to taking part in the experiment,relative,1,undefined,undefined,1,0,1,0,77,77,0,0,0,77,0,0,0,0,0,0,NA,0,77,0,0,0,NA,77,304,261,04/03/2018 11:29,A template containing a practice and an experimental phase,96,no,800,1280,15.72330189,yes,Exp_10_working.osexp,C:\Users\russe\Dropbox,no,mono,no,32,no,#ffffff,no,I confirm that my participation has been explained and consent to taking part in the experiment,NA,2,yes,800,me,droid,61,15,8,C:/Users/russe/Dropbox/Exp_10/subject-3.csv,droid,Jazzy James,3.1.7,0,8,NA,1,NA,1,1,NA,8,475,NA,614,NA,446,712,NA,475,2,legacy,Male,1024,2,48000,-16,experiment,3,odd,droid,5413,NA,NA,57255,57734,10622,11684,NA,57257,22493,NA,NA,NA,NA,2376,NA,NA,57734,NA,11238,21780,NA,57257,Runtime for Android template,58,27812,62,0.22222,no,1280,0.282669035
93.65079365,93.65079365,25,447.968254,447.968254,#000000,no,1,droid,legacy,legacy,0,I confirm that my participation has been explained and consent to taking part in the experiment,relative,1,undefined,undefined,1,0,1,0,78,78,0,0,0,78,0,0,0,0,0,0,NA,0,78,0,0,0,NA,78,675,159,04/03/2018 11:29,A template containing a practice and an experimental phase,96,no,800,1280,15.72330189,yes,Exp_10_working.osexp,C:\Users\russe\Dropbox,no,mono,no,32,no,#ffffff,no,I confirm that my participation has been explained and consent to taking part in the experiment,NA,1,yes,800,ed,droid,62,15,4,C:/Users/russe/Dropbox/Exp_10/subject-3.csv,droid,Jazzy James,3.1.7,0,4,NA,1,NA,1,1,NA,4,410,NA,614,NA,446,712,NA,410,2,legacy,Male,1024,2,48000,-16,experiment,3,odd,droid,5413,NA,NA,57928,58343,10622,11684,NA,57930,22493,NA,NA,NA,NA,2376,NA,NA,58343,NA,11238,21780,NA,57930,Runtime for Android template,59,28222,63,0.83333,no,1280,-0.333246733
93.75,93.75,25,448.828125,448.828125,#000000,no,1,droid,legacy,legacy,0,I confirm that my participation has been explained and consent to taking part in the experiment,relative,1,undefined,undefined,1,0,1,0,79,79,0,0,0,79,0,0,0,0,0,0,NA,0,79,0,0,0,NA,79,306,142,04/03/2018 11:29,A template containing a practice and an experimental phase,96,no,800,1280,15.72330189,yes,Exp_10_working.osexp,C:\Users\russe\Dropbox,no,mono,no,32,no,#ffffff,no,I confirm that my participation has been explained and consent to taking part in the experiment,NA,1,yes,800,da,droid,63,15,2,C:/Users/russe/Dropbox/Exp_10/subject-3.csv,droid,Jazzy James,3.1.7,0,2,NA,1,NA,1,1,NA,2,503,NA,614,NA,446,712,NA,503,2,legacy,Male,1024,2,48000,-16,experiment,3,odd,droid,5413,NA,NA,58395,58902,10622,11684,NA,58397,22493,NA,NA,NA,NA,2376,NA,NA,58902,NA,11238,21780,NA,58397,Runtime for Android template,60,28725,64,0.33333,no,1280,0.547986596
93.84615385,93.84615385,25,449.2,449.2,#000000,no,1,droid,legacy,legacy,0,I confirm that my participation has been explained and consent to taking part in the experiment,relative,1,undefined,undefined,1,0,1,0,80,80,0,0,0,80,0,0,0,0,0,0,NA,0,80,0,0,0,NA,80,545,33,04/03/2018 11:29,A template containing a practice and an experimental phase,96,no,800,1280,15.72330189,yes,Exp_10_working.osexp,C:\Users\russe\Dropbox,no,mono,no,32,no,#ffffff,no,I confirm that my participation has been explained and consent to taking part in the experiment,NA,2,yes,800,ab,droid,64,15,3,C:/Users/russe/Dropbox/Exp_10/subject-3.csv,droid,Jazzy James,3.1.7,0,3,NA,1,NA,1,1,NA,3,473,NA,614,NA,446,712,NA,473,2,legacy,Male,1024,2,48000,-16,experiment,3,odd,droid,5413,NA,NA,58961,59438,10622,11684,NA,58963,22493,NA,NA,NA,NA,2376,NA,NA,59439,NA,11238,21780,NA,58963,Runtime for Android template,61,29198,65,0.33333,no,1280,0.26371778
93.93939394,93.93939394,25,448.8787879,448.8787879,#000000,no,1,droid,legacy,legacy,0,I confirm that my participation has been explained and consent to taking part in the experiment,relative,1,undefined,undefined,1,0,1,0,81,81,0,0,0,81,0,0,0,0,0,0,NA,0,81,0,0,0,NA,81,909,714,04/03/2018 11:29,A template containing a practice and an experimental phase,96,no,800,1280,15.72330189,yes,Exp_10_working.osexp,C:\Users\russe\Dropbox,no,mono,no,32,no,#ffffff,no,I confirm that my participation has been explained and consent to taking part in the experiment,NA,1,yes,800,bp,droid,65,15,23,C:/Users/russe/Dropbox/Exp_10/subject-3.csv,droid,Jazzy James,3.1.7,0,23,NA,1,NA,1,1,NA,23,428,NA,614,NA,446,712,NA,428,2,legacy,Male,1024,2,48000,-16,experiment,3,odd,droid,5413,NA,NA,59534,59966,10622,11684,NA,59535,22493,NA,NA,NA,NA,2376,NA,NA,59966,NA,11238,21780,NA,59536,Runtime for Android template,62,29626,66,0.125,no,1280,-0.162685444
94.02985075,94.02985075,25,449.7014925,449.7014925,#000000,no,1,droid,legacy,legacy,0,I confirm that my participation has been explained and consent to taking part in the experiment,relative,1,undefined,undefined,1,0,1,0,82,82,0,0,0,82,0,0,0,0,0,0,NA,0,82,0,0,0,NA,82,350,344,04/03/2018 11:29,A template containing a practice and an experimental phase,96,no,800,1280,15.72330189,yes,Exp_10_working.osexp,C:\Users\russe\Dropbox,no,mono,no,32,no,#ffffff,no,I confirm that my participation has been explained and consent to taking part in the experiment,NA,1,yes,800,pe,droid,66,15,8,C:/Users/russe/Dropbox/Exp_10/subject-3.csv,droid,Jazzy James,3.1.7,0,8,NA,1,NA,1,1,NA,8,504,NA,614,NA,446,712,NA,504,2,legacy,Male,1024,2,48000,-16,experiment,3,odd,droid,5413,NA,NA,60059,60569,10622,11684,NA,60061,22493,NA,NA,NA,NA,2376,NA,NA,60569,NA,11238,21780,NA,60061,Runtime for Android template,63,30130,67,0.2,no,1280,0.557462224
94.11764706,94.11764706,25,449.4852941,449.4852941,#000000,no,1,droid,legacy,legacy,0,I confirm that my participation has been explained and consent to taking part in the experiment,relative,1,undefined,undefined,1,0,1,0,83,83,0,0,0,83,0,0,0,0,0,0,NA,0,83,0,0,0,NA,83,297,323,04/03/2018 11:29,A template containing a practice and an experimental phase,96,no,800,1280,15.72330189,yes,Exp_10_working.osexp,C:\Users\russe\Dropbox,no,mono,no,32,no,#ffffff,no,I confirm that my participation has been explained and consent to taking part in the experiment,NA,2,yes,800,ee,droid,67,15,8,C:/Users/russe/Dropbox/Exp_10/subject-3.csv,droid,Jazzy James,3.1.7,0,8,NA,1,NA,1,1,NA,8,435,NA,614,NA,446,712,NA,435,2,legacy,Male,1024,2,48000,-16,experiment,3,odd,droid,5413,NA,NA,60647,61086,10622,11684,NA,60649,22493,NA,NA,NA,NA,2376,NA,NA,61086,NA,11238,21780,NA,60649,Runtime for Android template,64,30565,68,0.16667,no,1280,-0.096356053
94.20289855,94.20289855,25,448.8550725,448.8550725,#000000,no,1,droid,legacy,legacy,0,I confirm that my participation has been explained and consent to taking part in the experiment,relative,1,undefined,undefined,1,0,1,0,84,84,0,0,0,84,0,0,0,0,0,0,NA,0,84,0,0,0,NA,84,542,57,04/03/2018 11:29,A template containing a practice and an experimental phase,96,no,800,1280,15.72330189,yes,Exp_10_working.osexp,C:\Users\russe\Dropbox,no,mono,no,32,no,#ffffff,no,I confirm that my participation has been explained and consent to taking part in the experiment,NA,1,yes,800,eb,droid,68,15,3,C:/Users/russe/Dropbox/Exp_10/subject-3.csv,droid,Jazzy James,3.1.7,0,3,NA,1,NA,1,1,NA,3,406,NA,614,NA,446,712,NA,406,2,legacy,Male,1024,2,48000,-16,experiment,3,odd,droid,5413,NA,NA,61181,61591,10622,11684,NA,61182,22493,NA,NA,NA,NA,2376,NA,NA,61591,NA,11238,21780,NA,61182,Runtime for Android template,65,30971,69,0.08333,no,1280,-0.371149242
92.85714286,92.85714286,25,448.3285714,448.3285714,#000000,no,1,droid,legacy,legacy,0,I confirm that my participation has been explained and consent to taking part in the experiment,relative,0,undefined,undefined,0,0,1,0,85,85,0,0,0,85,0,0,0,0,0,0,NA,0,85,0,0,0,NA,85,210,343,04/03/2018 11:29,A template containing a practice and an experimental phase,96,no,800,1280,15.72330189,yes,Exp_10_working.osexp,C:\Users\russe\Dropbox,no,mono,no,32,no,#ffffff,no,I confirm that my participation has been explained and consent to taking part in the experiment,NA,1,yes,800,be,droid,69,15,8,C:/Users/russe/Dropbox/Exp_10/subject-3.csv,droid,Jazzy James,3.1.7,0,7,NA,1,NA,1,1,NA,7,412,NA,614,NA,446,712,NA,412,2,legacy,Male,1024,2,48000,-16,experiment,3,odd,droid,5413,NA,NA,61677,62094,10622,11684,NA,61679,22493,NA,NA,NA,NA,2376,NA,NA,62094,NA,11238,21780,NA,61680,Runtime for Android template,65,31383,70,0.125,no,1280,-0.314295479
92.95774648,92.95774648,25,448.0140845,448.0140845,#000000,no,1,droid,legacy,legacy,0,I confirm that my participation has been explained and consent to taking part in the experiment,relative,1,undefined,undefined,1,0,1,0,86,86,0,0,0,86,0,0,0,0,0,0,NA,0,86,0,0,0,NA,86,559,36,04/03/2018 11:29,A template containing a practice and an experimental phase,96,no,800,1280,15.72330189,yes,Exp_10_working.osexp,C:\Users\russe\Dropbox,no,mono,no,32,no,#ffffff,no,I confirm that my participation has been explained and consent to taking part in the experiment,NA,2,yes,800,bb,droid,70,15,3,C:/Users/russe/Dropbox/Exp_10/subject-3.csv,droid,Jazzy James,3.1.7,0,3,NA,1,NA,1,1,NA,3,426,NA,614,NA,446,712,NA,426,2,legacy,Male,1024,2,48000,-16,experiment,3,odd,droid,5413,NA,NA,62248,62679,10622,11684,NA,62250,22493,NA,NA,NA,NA,2376,NA,NA,62679,NA,11238,21780,NA,62250,Runtime for Android template,66,31809,71,0.25,no,1280,-0.181636698
93.05555556,93.05555556,25,447.2638889,447.2638889,#000000,no,1,droid,legacy,legacy,0,I confirm that my participation has been explained and consent to taking part in the experiment,relative,1,undefined,undefined,1,0,1,0,87,87,0,0,0,87,0,0,0,0,0,0,NA,0,87,0,0,0,NA,87,741,113,04/03/2018 11:29,A template containing a practice and an experimental phase,96,no,800,1280,15.72330189,yes,Exp_10_working.osexp,C:\Users\russe\Dropbox,no,mono,no,32,no,#ffffff,no,I confirm that my participation has been explained and consent to taking part in the experiment,NA,1,yes,800,bc,droid,71,15,4,C:/Users/russe/Dropbox/Exp_10/subject-3.csv,droid,Jazzy James,3.1.7,0,4,NA,1,NA,1,1,NA,4,394,NA,614,NA,446,712,NA,394,2,legacy,Male,1024,2,48000,-16,experiment,3,odd,droid,5413,NA,NA,62784,63182,10622,11684,NA,62786,22493,NA,NA,NA,NA,2376,NA,NA,63182,NA,11238,21780,NA,62786,Runtime for Android template,67,32203,72,0.125,no,1280,-0.484856768
93.15068493,93.15068493,25,447.3561644,447.3561644,#000000,no,1,droid,legacy,legacy,0,I confirm that my participation has been explained and consent to taking part in the experiment,relative,1,undefined,undefined,1,0,1,0,88,88,0,0,0,88,0,0,0,0,0,0,NA,0,88,0,0,0,NA,88,779,677,04/03/2018 11:29,A template containing a practice and an experimental phase,96,no,800,1280,15.72330189,yes,Exp_10_working.osexp,C:\Users\russe\Dropbox,no,mono,no,32,no,#ffffff,no,I confirm that my participation has been explained and consent to taking part in the experiment,NA,3,yes,800,co,droid,72,15,22,C:/Users/russe/Dropbox/Exp_10/subject-3.csv,droid,Jazzy James,3.1.7,0,22,NA,1,NA,1,1,NA,22,454,NA,614,NA,446,712,NA,454,2,legacy,Male,1024,2,48000,-16,experiment,3,odd,droid,5413,NA,NA,63300,63758,10622,11684,NA,63302,22493,NA,NA,NA,NA,2376,NA,NA,63758,NA,11238,21780,NA,63302,Runtime for Android template,68,32657,73,0.3,no,1280,0.083680864
93.24324324,93.24324324,25,448.9324324,448.9324324,#000000,no,1,droid,legacy,legacy,0,I confirm that my participation has been explained and consent to taking part in the experiment,relative,1,undefined,undefined,1,0,1,0,89,89,0,0,0,89,0,0,0,0,0,0,NA,0,89,0,0,0,NA,89,353,97,04/03/2018 11:29,A template containing a practice and an experimental phase,96,no,800,1280,15.72330189,yes,Exp_10_working.osexp,C:\Users\russe\Dropbox,no,mono,no,32,no,#ffffff,no,I confirm that my participation has been explained and consent to taking part in the experiment,NA,4,yes,800,oa,droid,73,15,2,C:/Users/russe/Dropbox/Exp_10/subject-3.csv,droid,Jazzy James,3.1.7,0,2,NA,1,NA,1,1,NA,2,564,NA,614,NA,446,712,NA,564,2,legacy,Male,1024,2,48000,-16,experiment,3,odd,droid,5413,NA,NA,63830,64398,10622,11684,NA,63832,22493,NA,NA,NA,NA,2376,NA,NA,64398,NA,11238,21780,NA,63832,Runtime for Android template,69,33221,74,0.25,no,1280,1.125999856
93.33333333,93.33333333,25,449.7066667,449.7066667,#000000,no,1,droid,legacy,legacy,0,I confirm that my participation has been explained and consent to taking part in the experiment,relative,1,undefined,undefined,1,0,1,0,90,90,0,0,0,90,0,0,0,0,0,0,NA,0,90,0,0,0,NA,90,743,674,04/03/2018 11:29,A template containing a practice and an experimental phase,96,no,800,1280,15.72330189,yes,Exp_10_working.osexp,C:\Users\russe\Dropbox,no,mono,no,32,no,#ffffff,no,I confirm that my participation has been explained and consent to taking part in the experiment,NA,2,yes,800,ao,droid,74,15,22,C:/Users/russe/Dropbox/Exp_10/subject-3.csv,droid,Jazzy James,3.1.7,0,22,NA,1,NA,1,1,NA,22,507,NA,614,NA,446,712,NA,507,2,legacy,Male,1024,2,48000,-16,experiment,3,odd,droid,5413,NA,NA,64560,65070,10622,11684,NA,64561,22493,NA,NA,NA,NA,2376,NA,NA,65070,NA,11238,21780,NA,64561,Runtime for Android template,70,33728,75,0.33333,no,1280,0.585889105
93.42105263,93.42105263,25,449.7236842,449.7236842,#000000,no,1,droid,legacy,legacy,0,I confirm that my participation has been explained and consent to taking part in the experiment,relative,1,undefined,undefined,1,0,1,0,91,91,0,0,0,91,0,0,0,0,0,0,NA,0,91,0,0,0,NA,91,758,179,04/03/2018 11:29,A template containing a practice and an experimental phase,96,no,800,1280,15.72330189,yes,Exp_10_working.osexp,C:\Users\russe\Dropbox,no,mono,no,32,no,#ffffff,no,I confirm that my participation has been explained and consent to taking part in the experiment,NA,2,yes,800,oc,droid,75,15,4,C:/Users/russe/Dropbox/Exp_10/subject-3.csv,droid,Jazzy James,3.1.7,0,4,NA,1,NA,1,1,NA,4,451,NA,614,NA,446,712,NA,451,2,legacy,Male,1024,2,48000,-16,experiment,3,odd,droid,5413,NA,NA,65175,65630,10622,11684,NA,65177,22493,NA,NA,NA,NA,2376,NA,NA,65630,NA,11238,21780,NA,65177,Runtime for Android template,71,34179,76,0.125,no,1280,0.055253982
93.50649351,93.50649351,25,448.0779221,448.0779221,#000000,no,1,droid,legacy,legacy,0,I confirm that my participation has been explained and consent to taking part in the experiment,relative,1,undefined,undefined,1,0,1,0,92,92,0,0,0,92,0,0,0,0,0,0,NA,0,92,0,0,0,NA,92,775,502,04/03/2018 11:29,A template containing a practice and an experimental phase,96,no,800,1280,15.72330189,yes,Exp_10_working.osexp,C:\Users\russe\Dropbox,no,mono,no,32,no,#ffffff,no,I confirm that my participation has been explained and consent to taking part in the experiment,NA,1,yes,800,ck,droid,76,15,16,C:/Users/russe/Dropbox/Exp_10/subject-3.csv,droid,Jazzy James,3.1.7,0,16,NA,1,NA,1,1,NA,16,323,NA,614,NA,446,712,NA,323,2,legacy,Male,1024,2,48000,-16,experiment,3,odd,droid,5413,NA,NA,66111,66439,10622,11684,NA,66113,22493,NA,NA,NA,NA,2376,NA,NA,66439,NA,11238,21780,NA,66113,Runtime for Android template,72,34502,77,0.1,no,1280,-1.1576263
93.58974359,93.58974359,25,447.3974359,447.3974359,#000000,no,1,droid,legacy,legacy,0,I confirm that my participation has been explained and consent to taking part in the experiment,relative,1,undefined,undefined,1,0,1,0,93,93,0,0,0,93,0,0,0,0,0,0,NA,0,93,0,0,0,NA,93,721,320,04/03/2018 11:29,A template containing a practice and an experimental phase,96,no,800,1280,15.72330189,yes,Exp_10_working.osexp,C:\Users\russe\Dropbox,no,mono,no,32,no,#ffffff,no,I confirm that my participation has been explained and consent to taking part in the experiment,NA,1,yes,800,kg,droid,77,15,10,C:/Users/russe/Dropbox/Exp_10/subject-3.csv,droid,Jazzy James,3.1.7,0,10,NA,1,NA,1,1,NA,10,395,NA,614,NA,446,712,NA,395,2,legacy,Male,1024,2,48000,-16,experiment,3,odd,droid,5413,NA,NA,66590,66990,10622,11684,NA,66592,22493,NA,NA,NA,NA,2376,NA,NA,66990,NA,11238,21780,NA,66593,Runtime for Android template,73,34897,78,0.125,no,1280,-0.475381141
92.40506329,92.40506329,25,445.5949367,445.5949367,#000000,no,1,droid,legacy,legacy,0,I confirm that my participation has been explained and consent to taking part in the experiment,relative,0,undefined,undefined,0,0,1,0,94,94,0,0,0,94,0,0,0,0,0,0,NA,0,94,0,0,0,NA,94,606,596,04/03/2018 11:29,A template containing a practice and an experimental phase,96,no,800,1280,15.72330189,yes,Exp_10_working.osexp,C:\Users\russe\Dropbox,no,mono,no,32,no,#ffffff,no,I confirm that my participation has been explained and consent to taking part in the experiment,NA,1,yes,800,gn,droid,78,15,21,C:/Users/russe/Dropbox/Exp_10/subject-3.csv,droid,Jazzy James,3.1.7,0,15,NA,1,NA,1,1,NA,15,305,NA,614,NA,446,712,NA,305,2,legacy,Male,1024,2,48000,-16,experiment,3,odd,droid,5413,NA,NA,67265,67574,10622,11684,NA,67267,22493,NA,NA,NA,NA,2376,NA,NA,67574,NA,11238,21780,NA,67267,Runtime for Android template,73,35202,79,0.2,no,1280,-1.328187589
92.5,92.5,25,446.0875,446.0875,#000000,no,1,droid,legacy,legacy,0,I confirm that my participation has been explained and consent to taking part in the experiment,relative,1,undefined,undefined,1,0,1,0,95,95,0,0,0,95,0,0,0,0,0,0,NA,0,95,0,0,0,NA,95,972,315,04/03/2018 11:29,A template containing a practice and an experimental phase,96,no,800,1280,15.72330189,yes,Exp_10_working.osexp,C:\Users\russe\Dropbox,no,mono,no,32,no,#ffffff,no,I confirm that my participation has been explained and consent to taking part in the experiment,NA,4,yes,800,nh,droid,79,15,11,C:/Users/russe/Dropbox/Exp_10/subject-3.csv,droid,Jazzy James,3.1.7,0,11,NA,1,NA,1,1,NA,11,485,NA,614,NA,446,712,NA,485,2,legacy,Male,1024,2,48000,-16,experiment,3,odd,droid,5413,NA,NA,67677,68166,10622,11684,NA,67679,22493,NA,NA,NA,NA,2376,NA,NA,68166,NA,11238,21780,NA,67679,Runtime for Android template,74,35687,80,0.8,no,1280,0.377425307
92.59259259,92.59259259,25,445.7407407,445.7407407,#000000,no,1,droid,legacy,legacy,0,I confirm that my participation has been explained and consent to taking part in the experiment,relative,1,undefined,undefined,1,0,1,0,96,96,0,0,0,96,0,0,0,0,0,0,NA,0,96,0,0,0,NA,96,969,313,04/03/2018 11:29,A template containing a practice and an experimental phase,96,no,800,1280,15.72330189,yes,Exp_10_working.osexp,C:\Users\russe\Dropbox,no,mono,no,32,no,#ffffff,no,I confirm that my participation has been explained and consent to taking part in the experiment,NA,1,yes,800,hn,droid,80,15,11,C:/Users/russe/Dropbox/Exp_10/subject-3.csv,droid,Jazzy James,3.1.7,0,11,NA,1,NA,1,1,NA,11,418,NA,614,NA,446,712,NA,418,2,legacy,Male,1024,2,48000,-16,experiment,3,odd,droid,5413,NA,NA,68304,68726,10622,11684,NA,68306,22493,NA,NA,NA,NA,2376,NA,NA,68726,NA,11238,21780,NA,68306,Runtime for Android template,75,36105,81,0.07692,no,1280,-0.257441716
92.68292683,92.68292683,25,445.5,445.5,#000000,no,1,droid,legacy,legacy,0,I confirm that my participation has been explained and consent to taking part in the experiment,relative,1,undefined,undefined,1,0,1,0,97,97,0,0,0,97,0,0,0,0,0,0,NA,0,97,0,0,0,NA,97,590,640,04/03/2018 11:29,A template containing a practice and an experimental phase,96,no,800,1280,15.72330189,yes,Exp_10_working.osexp,C:\Users\russe\Dropbox,no,mono,no,32,no,#ffffff,no,I confirm that my participation has been explained and consent to taking part in the experiment,NA,4,yes,800,nh,droid,81,15,21,C:/Users/russe/Dropbox/Exp_10/subject-3.csv,droid,Jazzy James,3.1.7,0,21,NA,1,NA,1,1,NA,21,426,NA,614,NA,446,712,NA,426,2,legacy,Male,1024,2,48000,-16,experiment,3,odd,droid,5413,NA,NA,68842,69272,10622,11684,NA,68843,22493,NA,NA,NA,NA,2376,NA,NA,69272,NA,11238,21780,NA,68843,Runtime for Android template,76,36531,82,0.8,no,1280,-0.181636698
92.77108434,92.77108434,25,445.0361446,445.0361446,#000000,no,1,droid,legacy,legacy,0,I confirm that my participation has been explained and consent to taking part in the experiment,relative,1,undefined,undefined,1,0,1,0,98,98,0,0,0,98,0,0,0,0,0,0,NA,0,98,0,0,0,NA,98,933,700,04/03/2018 11:29,A template containing a practice and an experimental phase,96,no,800,1280,15.72330189,yes,Exp_10_working.osexp,C:\Users\russe\Dropbox,no,mono,no,32,no,#ffffff,no,I confirm that my participation has been explained and consent to taking part in the experiment,NA,1,yes,800,hp,droid,82,15,23,C:/Users/russe/Dropbox/Exp_10/subject-3.csv,droid,Jazzy James,3.1.7,0,23,NA,1,NA,1,1,NA,23,407,NA,614,NA,446,712,NA,407,2,legacy,Male,1024,2,48000,-16,experiment,3,odd,droid,5413,NA,NA,69340,69750,10622,11684,NA,69341,22493,NA,NA,NA,NA,2376,NA,NA,69750,NA,11238,21780,NA,69341,Runtime for Android template,77,36938,83,0.07692,no,1280,-0.361673615
92.85714286,92.85714286,25,446.0952381,446.0952381,#000000,no,1,droid,legacy,legacy,0,I confirm that my participation has been explained and consent to taking part in the experiment,relative,1,undefined,undefined,1,0,1,0,99,99,0,0,0,99,0,0,0,0,0,0,NA,0,99,0,0,0,NA,99,321,709,04/03/2018 11:29,A template containing a practice and an experimental phase,96,no,800,1280,15.72330189,yes,Exp_10_working.osexp,C:\Users\russe\Dropbox,no,mono,no,32,no,#ffffff,no,I confirm that my participation has been explained and consent to taking part in the experiment,NA,1,yes,800,pm,droid,83,15,20,C:/Users/russe/Dropbox/Exp_10/subject-3.csv,droid,Jazzy James,3.1.7,0,20,NA,1,NA,1,1,NA,20,534,NA,614,NA,446,712,NA,534,2,legacy,Male,1024,2,48000,-16,experiment,3,odd,droid,5413,NA,NA,69805,70342,10622,11684,NA,69806,22493,NA,NA,NA,NA,2376,NA,NA,70342,NA,11238,21780,NA,69806,Runtime for Android template,78,37472,84,0.2,no,1280,0.84173104
91.76470588,91.76470588,25,446.3411765,446.3411765,#000000,no,1,droid,legacy,legacy,0,I confirm that my participation has been explained and consent to taking part in the experiment,relative,0,undefined,undefined,0,0,1,0,100,100,0,0,0,100,0,0,0,0,0,0,NA,0,100,0,0,0,NA,100,1086,312,04/03/2018 11:29,A template containing a practice and an experimental phase,96,no,800,1280,15.72330189,yes,Exp_10_working.osexp,C:\Users\russe\Dropbox,no,mono,no,32,no,#ffffff,no,I confirm that my participation has been explained and consent to taking part in the experiment,NA,1,yes,800,mh,droid,84,15,11,C:/Users/russe/Dropbox/Exp_10/subject-3.csv,droid,Jazzy James,3.1.7,0,12,NA,1,NA,1,1,NA,12,467,NA,614,NA,446,712,NA,467,2,legacy,Male,1024,2,48000,-16,experiment,3,odd,droid,5413,NA,NA,70479,70952,10622,11684,NA,70481,22493,NA,NA,NA,NA,2376,NA,NA,70952,NA,11238,21780,NA,70481,Runtime for Android template,78,37939,85,0.11111,no,1280,0.206864017
91.86046512,91.86046512,25,445.5581395,445.5581395,#000000,no,1,droid,legacy,legacy,0,I confirm that my participation has been explained and consent to taking part in the experiment,relative,1,undefined,undefined,1,0,1,0,101,101,0,0,0,101,0,0,0,0,0,0,NA,0,101,0,0,0,NA,101,472,548,04/03/2018 11:29,A template containing a practice and an experimental phase,96,no,800,1280,15.72330189,yes,Exp_10_working.osexp,C:\Users\russe\Dropbox,no,mono,no,32,no,#ffffff,no,I confirm that my participation has been explained and consent to taking part in the experiment,NA,2,yes,800,hj,droid,85,15,15,C:/Users/russe/Dropbox/Exp_10/subject-3.csv,droid,Jazzy James,3.1.7,0,15,NA,1,NA,1,1,NA,15,379,NA,614,NA,446,712,NA,379,2,legacy,Male,1024,2,48000,-16,experiment,3,odd,droid,5413,NA,NA,71015,71398,10622,11684,NA,71017,22493,NA,NA,NA,NA,2376,NA,NA,71398,NA,11238,21780,NA,71017,Runtime for Android template,79,38318,86,0.15385,no,1280,-0.626991176
91.95402299,91.95402299,25,445.4137931,445.4137931,#000000,no,1,droid,legacy,legacy,0,I confirm that my participation has been explained and consent to taking part in the experiment,relative,1,undefined,undefined,1,0,1,0,102,102,0,0,0,102,0,0,0,0,0,0,NA,0,102,0,0,0,NA,102,890,330,04/03/2018 11:29,A template containing a practice and an experimental phase,96,no,800,1280,15.72330189,yes,Exp_10_working.osexp,C:\Users\russe\Dropbox,no,mono,no,32,no,#ffffff,no,I confirm that my participation has been explained and consent to taking part in the experiment,NA,1,yes,800,jh,droid,86,15,11,C:/Users/russe/Dropbox/Exp_10/subject-3.csv,droid,Jazzy James,3.1.7,0,11,NA,1,NA,1,1,NA,11,433,NA,614,NA,446,712,NA,433,2,legacy,Male,1024,2,48000,-16,experiment,3,odd,droid,5413,NA,NA,71450,71887,10622,11684,NA,71451,22493,NA,NA,NA,NA,2376,NA,NA,71887,NA,11238,21780,NA,71451,Runtime for Android template,80,38751,87,0.125,no,1280,-0.115307308
92.04545455,92.04545455,25,445.5227273,445.5227273,#000000,no,1,droid,legacy,legacy,0,I confirm that my participation has been explained and consent to taking part in the experiment,relative,1,undefined,undefined,1,0,1,0,103,103,0,0,0,103,0,0,0,0,0,0,NA,0,103,0,0,0,NA,103,699,276,04/03/2018 11:29,A template containing a practice and an experimental phase,96,no,800,1280,15.72330189,yes,Exp_10_working.osexp,C:\Users\russe\Dropbox,no,mono,no,32,no,#ffffff,no,I confirm that my participation has been explained and consent to taking part in the experiment,NA,2,yes,800,hg,droid,87,15,10,C:/Users/russe/Dropbox/Exp_10/subject-3.csv,droid,Jazzy James,3.1.7,0,10,NA,1,NA,1,1,NA,10,455,NA,614,NA,446,712,NA,455,2,legacy,Male,1024,2,48000,-16,experiment,3,odd,droid,5413,NA,NA,71939,72398,10622,11684,NA,71941,22493,NA,NA,NA,NA,2376,NA,NA,72398,NA,11238,21780,NA,71941,Runtime for Android template,81,39206,88,0.15385,no,1280,0.093156491
92.13483146,92.13483146,25,444.3595506,444.3595506,#000000,no,1,droid,legacy,legacy,0,I confirm that my participation has been explained and consent to taking part in the experiment,relative,1,undefined,undefined,1,0,1,0,104,104,0,0,0,104,0,0,0,0,0,0,NA,0,104,0,0,0,NA,104,530,534,04/03/2018 11:29,A template containing a practice and an experimental phase,96,no,800,1280,15.72330189,yes,Exp_10_working.osexp,C:\Users\russe\Dropbox,no,mono,no,32,no,#ffffff,no,I confirm that my participation has been explained and consent to taking part in the experiment,NA,1,yes,800,gj,droid,88,15,15,C:/Users/russe/Dropbox/Exp_10/subject-3.csv,droid,Jazzy James,3.1.7,0,15,NA,1,NA,1,1,NA,15,342,NA,614,NA,446,712,NA,342,2,legacy,Male,1024,2,48000,-16,experiment,3,odd,droid,5413,NA,NA,72460,72806,10622,11684,NA,72462,22493,NA,NA,NA,NA,2376,NA,NA,72806,NA,11238,21780,NA,72462,Runtime for Android template,82,39548,89,0.2,no,1280,-0.977589383
92.22222222,92.22222222,25,443.4777778,443.4777778,#000000,no,1,droid,legacy,legacy,0,I confirm that my participation has been explained and consent to taking part in the experiment,relative,1,undefined,undefined,1,0,1,0,105,105,0,0,0,105,0,0,0,0,0,0,NA,0,105,0,0,0,NA,105,738,670,04/03/2018 11:29,A template containing a practice and an experimental phase,96,no,800,1280,15.72330189,yes,Exp_10_working.osexp,C:\Users\russe\Dropbox,no,mono,no,32,no,#ffffff,no,I confirm that my participation has been explained and consent to taking part in the experiment,NA,2,yes,800,jo,droid,89,15,22,C:/Users/russe/Dropbox/Exp_10/subject-3.csv,droid,Jazzy James,3.1.7,0,22,NA,1,NA,1,1,NA,22,365,NA,614,NA,446,712,NA,365,2,legacy,Male,1024,2,48000,-16,experiment,3,odd,droid,5413,NA,NA,72902,73271,10622,11684,NA,72903,22493,NA,NA,NA,NA,2376,NA,NA,73271,NA,11238,21780,NA,72903,Runtime for Android template,83,39913,90,0.25,no,1280,-0.759649957
