acc,accuracy,age,average_response_time,avg_rt,background,bidi,block,canvas_backend,clock_backend,color_backend,compensation,consent,coordinates,correct,correct_Instructions,correct_new_sketchpad,correct_new_touch_response_4,count_Age,count_Break,count_Consent,count_Experimental_sequence,count_ISI,count_Instructions,count_Prac_block,count_Sex,count_Test_pad,count_block_1,count_block_2,count_block_3,count_block_4,count_block_5,count_experiment,count_feedback,count_incongruent_block,count_logger,count_new_reset_feedback,count_new_sketchpad,count_new_sketchpad_1,count_new_sketchpad_3,count_new_touch_response_4,cursor_x,cursor_y,datetime,description,device_dpi,device_is_tablet,device_resolution_height,device_resolution_width,device_screen_diag,disable_garbage_collection,experiment_file,experiment_path,font_bold,font_family,font_italic,font_size,font_underline,foreground,form_clicks,form_response,form_var,freq,fullscreen,height,key,keyboard_backend,live_row,live_row_Prac_block,loc,logfile,mouse_backend,opensesame_codename,opensesame_version,repeat_cycle,response,response_Break,response_Instructions,response_feedback,response_new_sketchpad,response_new_sketchpad_1,response_new_sketchpad_3,response_new_touch_response_4,response_time,response_time_Break,response_time_Instructions,response_time_feedback,response_time_new_sketchpad,response_time_new_sketchpad_1,response_time_new_sketchpad_3,response_time_new_touch_response_4,round_decimals,sampler_backend,sex,sound_buf_size,sound_channels,sound_freq,sound_sample_size,start,subject_nr,subject_parity,synth_backend,time_Age,time_Break,time_Consent,time_Experimental_sequence,time_ISI,time_Instructions,time_Prac_block,time_Sex,time_Test_pad,time_block_1,time_block_2,time_block_3,time_block_4,time_block_5,time_experiment,time_feedback,time_incongruent_block,time_logger,time_new_reset_feedback,time_new_sketchpad,time_new_sketchpad_1,time_new_sketchpad_3,time_new_touch_response_4,title,total_correct,total_response_time,total_responses,tp,uniform_coordinates,width,z
100,100,20,588,588,#000000,no,NA,droid,legacy,legacy,0,I confirm that my participation has been explained and consent to taking part in the experiment,relative,1,undefined,undefined,1,0,1,0,0,0,0,0,0,0,0,0,0,0,0,0,NA,0,0,0,0,0,NA,0,339,111,04/09/2018 10:37,A template containing a practice and an experimental phase,96,no,800,1280,15.72330189,yes,Exp_10_working.osexp,C:\Users\russe\Dropbox,no,mono,no,32,no,#ffffff,no,I confirm that my participation has been explained and consent to taking part in the experiment,NA,NA,yes,800,NA,droid,0,0,2,C:/Users/russe/Dropbox/Exp_10/New folder/subject-6.csv,droid,Jazzy James,3.1.7,0,2,NA,1,NA,1,NA,NA,2,588,NA,1159,NA,662,NA,NA,588,2,legacy,Female,1024,2,48000,-16,experiment,6,even,droid,68708,NA,NA,82864,83454,81021,82844,NA,82864,NA,NA,NA,NA,NA,2370,NA,NA,83454,NA,82182,NA,NA,82864,Runtime for Android template,1,588,1,NA,no,1280,1.088403434
100,100,20,493.5,493.5,#000000,no,NA,droid,legacy,legacy,0,I confirm that my participation has been explained and consent to taking part in the experiment,relative,1,undefined,undefined,1,0,1,0,1,1,0,0,0,1,0,0,0,0,0,0,NA,0,1,0,0,0,NA,1,937,520,04/09/2018 10:37,A template containing a practice and an experimental phase,96,no,800,1280,15.72330189,yes,Exp_10_working.osexp,C:\Users\russe\Dropbox,no,mono,no,32,no,#ffffff,no,I confirm that my participation has been explained and consent to taking part in the experiment,NA,NA,yes,800,NA,droid,1,1,17,C:/Users/russe/Dropbox/Exp_10/New folder/subject-6.csv,droid,Jazzy James,3.1.7,0,17,NA,1,NA,1,NA,NA,17,399,NA,1159,NA,662,NA,NA,399,2,legacy,Female,1024,2,48000,-16,experiment,6,even,droid,68708,NA,NA,83539,83941,81021,82844,NA,83541,NA,NA,NA,NA,NA,2370,NA,NA,83941,NA,82182,NA,NA,83541,Runtime for Android template,2,987,2,NA,no,1280,-0.154931556
100,100,20,471.6666667,471.6666667,#000000,no,NA,droid,legacy,legacy,0,I confirm that my participation has been explained and consent to taking part in the experiment,relative,1,undefined,undefined,1,0,1,0,2,2,0,0,0,2,0,0,0,0,0,0,NA,0,2,0,0,0,NA,2,383,495,04/09/2018 10:37,A template containing a practice and an experimental phase,96,no,800,1280,15.72330189,yes,Exp_10_working.osexp,C:\Users\russe\Dropbox,no,mono,no,32,no,#ffffff,no,I confirm that my participation has been explained and consent to taking part in the experiment,NA,NA,yes,800,NA,droid,2,2,14,C:/Users/russe/Dropbox/Exp_10/New folder/subject-6.csv,droid,Jazzy James,3.1.7,0,14,NA,1,NA,1,NA,NA,14,428,NA,1159,NA,662,NA,NA,428,2,legacy,Female,1024,2,48000,-16,experiment,6,even,droid,68708,NA,NA,84014,84446,81021,82844,NA,84016,NA,NA,NA,NA,NA,2370,NA,NA,84446,NA,82182,NA,NA,84016,Runtime for Android template,3,1415,3,NA,no,1280,0.035844713
100,100,20,460,460,#000000,no,NA,droid,legacy,legacy,0,I confirm that my participation has been explained and consent to taking part in the experiment,relative,1,undefined,undefined,1,0,1,0,3,3,0,0,0,3,0,0,0,0,0,0,NA,0,3,0,0,0,NA,3,513,756,04/09/2018 10:37,A template containing a practice and an experimental phase,96,no,800,1280,15.72330189,yes,Exp_10_working.osexp,C:\Users\russe\Dropbox,no,mono,no,32,no,#ffffff,no,I confirm that my participation has been explained and consent to taking part in the experiment,NA,NA,yes,800,NA,droid,3,3,21,C:/Users/russe/Dropbox/Exp_10/New folder/subject-6.csv,droid,Jazzy James,3.1.7,0,21,NA,1,NA,1,NA,NA,21,425,NA,1159,NA,662,NA,NA,425,2,legacy,Female,1024,2,48000,-16,experiment,6,even,droid,68708,NA,NA,84514,84942,81021,82844,NA,84515,NA,NA,NA,NA,NA,2370,NA,NA,84942,NA,82182,NA,NA,84515,Runtime for Android template,4,1840,4,NA,no,1280,0.016109237
100,100,20,436.2,436.2,#000000,no,NA,droid,legacy,legacy,0,I confirm that my participation has been explained and consent to taking part in the experiment,relative,1,undefined,undefined,1,0,1,0,4,4,0,0,0,4,0,0,0,0,0,0,NA,0,4,0,0,0,NA,4,543,532,04/09/2018 10:37,A template containing a practice and an experimental phase,96,no,800,1280,15.72330189,yes,Exp_10_working.osexp,C:\Users\russe\Dropbox,no,mono,no,32,no,#ffffff,no,I confirm that my participation has been explained and consent to taking part in the experiment,NA,NA,yes,800,NA,droid,4,4,15,C:/Users/russe/Dropbox/Exp_10/New folder/subject-6.csv,droid,Jazzy James,3.1.7,0,15,NA,1,NA,1,NA,NA,15,341,NA,1159,NA,662,NA,NA,341,2,legacy,Female,1024,2,48000,-16,experiment,6,even,droid,68708,NA,NA,84998,85342,81021,82844,NA,84999,NA,NA,NA,NA,NA,2370,NA,NA,85342,NA,82182,NA,NA,84999,Runtime for Android template,5,2181,5,NA,no,1280,-0.536484092
100,100,20,425.6666667,425.6666667,#000000,no,NA,droid,legacy,legacy,0,I confirm that my participation has been explained and consent to taking part in the experiment,relative,1,undefined,undefined,1,0,1,0,5,5,0,0,0,5,0,0,0,0,0,0,NA,0,5,0,0,0,NA,5,562,299,04/09/2018 10:37,A template containing a practice and an experimental phase,96,no,800,1280,15.72330189,yes,Exp_10_working.osexp,C:\Users\russe\Dropbox,no,mono,no,32,no,#ffffff,no,I confirm that my participation has been explained and consent to taking part in the experiment,NA,NA,yes,800,NA,droid,5,5,9,C:/Users/russe/Dropbox/Exp_10/New folder/subject-6.csv,droid,Jazzy James,3.1.7,0,9,NA,1,NA,1,NA,NA,9,373,NA,1159,NA,662,NA,NA,373,2,legacy,Female,1024,2,48000,-16,experiment,6,even,droid,68708,NA,NA,85422,85798,81021,82844,NA,85423,NA,NA,NA,NA,NA,2370,NA,NA,85798,NA,82182,NA,NA,85423,Runtime for Android template,6,2554,6,NA,no,1280,-0.325972348
100,100,20,426.2857143,426.2857143,#000000,no,NA,droid,legacy,legacy,0,I confirm that my participation has been explained and consent to taking part in the experiment,relative,1,undefined,undefined,1,0,1,0,6,6,0,0,0,6,0,0,0,0,0,0,NA,0,6,0,0,0,NA,6,754,730,04/09/2018 10:37,A template containing a practice and an experimental phase,96,no,800,1280,15.72330189,yes,Exp_10_working.osexp,C:\Users\russe\Dropbox,no,mono,no,32,no,#ffffff,no,I confirm that my participation has been explained and consent to taking part in the experiment,NA,NA,yes,800,NA,droid,6,6,22,C:/Users/russe/Dropbox/Exp_10/New folder/subject-6.csv,droid,Jazzy James,3.1.7,0,22,NA,1,NA,1,NA,NA,22,430,NA,1159,NA,662,NA,NA,430,2,legacy,Female,1024,2,48000,-16,experiment,6,even,droid,68708,NA,NA,85860,86294,81021,82844,NA,85862,NA,NA,NA,NA,NA,2370,NA,NA,86294,NA,82182,NA,NA,85862,Runtime for Android template,7,2984,7,NA,no,1280,0.049001697
100,100,20,425.125,425.125,#000000,no,NA,droid,legacy,legacy,0,I confirm that my participation has been explained and consent to taking part in the experiment,relative,1,undefined,undefined,1,0,1,0,7,7,0,0,0,7,0,0,0,0,0,0,NA,0,7,0,0,0,NA,7,278,704,04/09/2018 10:37,A template containing a practice and an experimental phase,96,no,800,1280,15.72330189,yes,Exp_10_working.osexp,C:\Users\russe\Dropbox,no,mono,no,32,no,#ffffff,no,I confirm that my participation has been explained and consent to taking part in the experiment,NA,NA,yes,800,NA,droid,7,7,20,C:/Users/russe/Dropbox/Exp_10/New folder/subject-6.csv,droid,Jazzy James,3.1.7,0,20,NA,1,NA,1,NA,NA,20,417,NA,1159,NA,662,NA,NA,417,2,legacy,Female,1024,2,48000,-16,experiment,6,even,droid,68708,NA,NA,86345,86766,81021,82844,NA,86347,NA,NA,NA,NA,NA,2370,NA,NA,86766,NA,82182,NA,NA,86347,Runtime for Android template,8,3401,8,NA,no,1280,-0.0365187
100,100,20,417.6666667,417.6666667,#000000,no,NA,droid,legacy,legacy,0,I confirm that my participation has been explained and consent to taking part in the experiment,relative,1,undefined,undefined,1,0,1,0,8,8,0,0,0,8,0,0,0,0,0,0,NA,0,8,0,0,0,NA,8,756,324,04/09/2018 10:37,A template containing a practice and an experimental phase,96,no,800,1280,15.72330189,yes,Exp_10_working.osexp,C:\Users\russe\Dropbox,no,mono,no,32,no,#ffffff,no,I confirm that my participation has been explained and consent to taking part in the experiment,NA,NA,yes,800,NA,droid,8,8,10,C:/Users/russe/Dropbox/Exp_10/New folder/subject-6.csv,droid,Jazzy James,3.1.7,0,10,NA,1,NA,1,NA,NA,10,358,NA,1159,NA,662,NA,NA,358,2,legacy,Female,1024,2,48000,-16,experiment,6,even,droid,68708,NA,NA,86844,87206,81021,82844,NA,86846,NA,NA,NA,NA,NA,2370,NA,NA,87206,NA,82182,NA,NA,86846,Runtime for Android template,9,3759,9,NA,no,1280,-0.424649728
100,100,20,421.8,421.8,#000000,no,NA,droid,legacy,legacy,0,I confirm that my participation has been explained and consent to taking part in the experiment,relative,1,undefined,undefined,1,0,1,0,9,9,0,0,0,9,0,0,0,0,0,0,NA,0,9,0,0,0,NA,9,995,742,04/09/2018 10:37,A template containing a practice and an experimental phase,96,no,800,1280,15.72330189,yes,Exp_10_working.osexp,C:\Users\russe\Dropbox,no,mono,no,32,no,#ffffff,no,I confirm that my participation has been explained and consent to taking part in the experiment,NA,NA,yes,800,NA,droid,9,9,23,C:/Users/russe/Dropbox/Exp_10/New folder/subject-6.csv,droid,Jazzy James,3.1.7,0,23,NA,1,NA,1,NA,NA,23,459,NA,1159,NA,662,NA,NA,459,2,legacy,Female,1024,2,48000,-16,experiment,6,even,droid,68708,NA,NA,87263,87726,81021,82844,NA,87265,NA,NA,NA,NA,NA,2370,NA,NA,87726,NA,82182,NA,NA,87265,Runtime for Android template,10,4218,10,NA,no,1280,0.239777965
100,100,20,418.4545455,418.4545455,#000000,no,NA,droid,legacy,legacy,0,I confirm that my participation has been explained and consent to taking part in the experiment,relative,1,undefined,undefined,1,0,1,0,10,10,0,0,0,10,0,0,0,0,0,0,NA,0,10,0,0,0,NA,10,650,26,04/09/2018 10:37,A template containing a practice and an experimental phase,96,no,800,1280,15.72330189,yes,Exp_10_working.osexp,C:\Users\russe\Dropbox,no,mono,no,32,no,#ffffff,no,I confirm that my participation has been explained and consent to taking part in the experiment,NA,NA,yes,800,NA,droid,10,10,4,C:/Users/russe/Dropbox/Exp_10/New folder/subject-6.csv,droid,Jazzy James,3.1.7,0,4,NA,1,NA,1,NA,NA,4,385,NA,1159,NA,662,NA,NA,385,2,legacy,Female,1024,2,48000,-16,experiment,6,even,droid,68708,NA,NA,87777,88165,81021,82844,NA,87779,NA,NA,NA,NA,NA,2370,NA,NA,88166,NA,82182,NA,NA,87779,Runtime for Android template,11,4603,11,NA,no,1280,-0.247030444
100,100,20,416.25,416.25,#000000,no,NA,droid,legacy,legacy,0,I confirm that my participation has been explained and consent to taking part in the experiment,relative,1,undefined,undefined,1,0,1,0,11,11,0,0,0,11,0,0,0,0,0,0,NA,0,11,0,0,0,NA,11,703,474,04/09/2018 10:37,A template containing a practice and an experimental phase,96,no,800,1280,15.72330189,yes,Exp_10_working.osexp,C:\Users\russe\Dropbox,no,mono,no,32,no,#ffffff,no,I confirm that my participation has been explained and consent to taking part in the experiment,NA,NA,yes,800,NA,droid,11,11,16,C:/Users/russe/Dropbox/Exp_10/New folder/subject-6.csv,droid,Jazzy James,3.1.7,0,16,NA,1,NA,1,NA,NA,16,392,NA,1159,NA,662,NA,NA,392,2,legacy,Female,1024,2,48000,-16,experiment,6,even,droid,68708,NA,NA,88226,88621,81021,82844,NA,88228,NA,NA,NA,NA,NA,2370,NA,NA,88622,NA,82182,NA,NA,88228,Runtime for Android template,12,4995,12,NA,no,1280,-0.200981
100,100,20,409.1538462,409.1538462,#000000,no,NA,droid,legacy,legacy,0,I confirm that my participation has been explained and consent to taking part in the experiment,relative,1,undefined,undefined,1,0,1,0,12,12,0,0,0,12,0,0,0,0,0,0,NA,0,12,0,0,0,NA,12,988,365,04/09/2018 10:37,A template containing a practice and an experimental phase,96,no,800,1280,15.72330189,yes,Exp_10_working.osexp,C:\Users\russe\Dropbox,no,mono,no,32,no,#ffffff,no,I confirm that my participation has been explained and consent to taking part in the experiment,NA,NA,yes,800,NA,droid,12,12,11,C:/Users/russe/Dropbox/Exp_10/New folder/subject-6.csv,droid,Jazzy James,3.1.7,0,11,NA,1,NA,1,NA,NA,11,324,NA,1159,NA,662,NA,NA,324,2,legacy,Female,1024,2,48000,-16,experiment,6,even,droid,68708,NA,NA,88695,89022,81021,82844,NA,88696,NA,NA,NA,NA,NA,2370,NA,NA,89022,NA,82182,NA,NA,88696,Runtime for Android template,13,5319,13,NA,no,1280,-0.648318456
100,100,20,408.7857143,408.7857143,#000000,no,NA,droid,legacy,legacy,0,I confirm that my participation has been explained and consent to taking part in the experiment,relative,1,undefined,undefined,1,0,1,0,13,13,0,0,0,13,0,0,0,0,0,0,NA,0,13,0,0,0,NA,13,352,249,04/09/2018 10:37,A template containing a practice and an experimental phase,96,no,800,1280,15.72330189,yes,Exp_10_working.osexp,C:\Users\russe\Dropbox,no,mono,no,32,no,#ffffff,no,I confirm that my participation has been explained and consent to taking part in the experiment,NA,NA,yes,800,NA,droid,13,13,8,C:/Users/russe/Dropbox/Exp_10/New folder/subject-6.csv,droid,Jazzy James,3.1.7,0,8,NA,1,NA,1,NA,NA,8,404,NA,1159,NA,662,NA,NA,404,2,legacy,Female,1024,2,48000,-16,experiment,6,even,droid,68708,NA,NA,89078,89486,81021,82844,NA,89080,NA,NA,NA,NA,NA,2370,NA,NA,89486,NA,82182,NA,NA,89080,Runtime for Android template,14,5723,14,NA,no,1280,-0.122039096
100,100,20,409.4666667,409.4666667,#000000,no,NA,droid,legacy,legacy,0,I confirm that my participation has been explained and consent to taking part in the experiment,relative,1,undefined,undefined,1,0,1,0,14,14,0,0,0,14,0,0,0,0,0,0,NA,0,14,0,0,0,NA,14,1060,129,04/09/2018 10:37,A template containing a practice and an experimental phase,96,no,800,1280,15.72330189,yes,Exp_10_working.osexp,C:\Users\russe\Dropbox,no,mono,no,32,no,#ffffff,no,I confirm that my participation has been explained and consent to taking part in the experiment,NA,NA,yes,800,NA,droid,14,14,5,C:/Users/russe/Dropbox/Exp_10/New folder/subject-6.csv,droid,Jazzy James,3.1.7,0,5,NA,1,NA,1,NA,NA,5,419,NA,1159,NA,662,NA,NA,419,2,legacy,Female,1024,2,48000,-16,experiment,6,even,droid,68708,NA,NA,89528,89950,81021,82844,NA,89529,NA,NA,NA,NA,NA,2370,NA,NA,89950,NA,82182,NA,NA,89529,Runtime for Android template,15,6142,15,NA,no,1280,-0.023361715
93.75,93.75,20,409.5,409.5,#000000,no,NA,droid,legacy,legacy,0,I confirm that my participation has been explained and consent to taking part in the experiment,relative,0,undefined,undefined,0,0,1,0,15,15,0,0,0,15,0,0,0,0,0,0,NA,0,15,0,0,0,NA,15,640,65,04/09/2018 10:37,A template containing a practice and an experimental phase,96,no,800,1280,15.72330189,yes,Exp_10_working.osexp,C:\Users\russe\Dropbox,no,mono,no,32,no,#ffffff,no,I confirm that my participation has been explained and consent to taking part in the experiment,NA,NA,yes,800,NA,droid,15,15,3,C:/Users/russe/Dropbox/Exp_10/New folder/subject-6.csv,droid,Jazzy James,3.1.7,0,4,NA,1,NA,1,NA,NA,4,410,NA,1159,NA,662,NA,NA,410,2,legacy,Female,1024,2,48000,-16,experiment,6,even,droid,68708,NA,NA,90016,90430,81021,82844,NA,90018,NA,NA,NA,NA,NA,2370,NA,NA,90430,NA,82182,NA,NA,90018,Runtime for Android template,15,6552,16,NA,no,1280,-0.082568144
100,100,20,481,481,#000000,no,1,droid,legacy,legacy,0,I confirm that my participation has been explained and consent to taking part in the experiment,relative,1,undefined,undefined,1,0,1,0,16,16,0,0,0,16,0,0,0,0,0,0,NA,0,16,0,0,0,NA,16,262,329,04/09/2018 10:37,A template containing a practice and an experimental phase,96,no,800,1280,15.72330189,yes,Exp_10_working.osexp,C:\Users\russe\Dropbox,no,mono,no,32,no,#ffffff,no,I confirm that my participation has been explained and consent to taking part in the experiment,NA,2,yes,800,oe,droid,0,15,8,C:/Users/russe/Dropbox/Exp_10/New folder/subject-6.csv,droid,Jazzy James,3.1.7,0,8,NA,1,NA,1,1,NA,8,481,NA,1159,NA,662,770,NA,481,2,legacy,Female,1024,2,48000,-16,experiment,6,even,droid,68708,NA,NA,91258,91741,81021,82844,NA,91259,91236,NA,NA,NA,NA,2370,NA,NA,91741,NA,82182,90466,NA,91259,Runtime for Android template,1,481,1,0.125,no,1280,0.384504789
100,100,20,391,391,#000000,no,1,droid,legacy,legacy,0,I confirm that my participation has been explained and consent to taking part in the experiment,relative,1,undefined,undefined,1,0,1,0,17,17,0,0,0,17,0,0,0,0,0,0,NA,0,17,0,0,0,NA,17,232,303,04/09/2018 10:37,A template containing a practice and an experimental phase,96,no,800,1280,15.72330189,yes,Exp_10_working.osexp,C:\Users\russe\Dropbox,no,mono,no,32,no,#ffffff,no,I confirm that my participation has been explained and consent to taking part in the experiment,NA,2,yes,800,ee,droid,1,15,8,C:/Users/russe/Dropbox/Exp_10/New folder/subject-6.csv,droid,Jazzy James,3.1.7,0,8,NA,1,NA,1,1,NA,8,301,NA,1159,NA,662,770,NA,301,2,legacy,Female,1024,2,48000,-16,experiment,6,even,droid,68708,NA,NA,91798,92101,81021,82844,NA,91799,91236,NA,NA,NA,NA,2370,NA,NA,92102,NA,82182,90466,NA,91799,Runtime for Android template,2,782,2,0.16667,no,1280,-0.799623773
100,100,20,386.3333333,386.3333333,#000000,no,1,droid,legacy,legacy,0,I confirm that my participation has been explained and consent to taking part in the experiment,relative,1,undefined,undefined,1,0,1,0,18,18,0,0,0,18,0,0,0,0,0,0,NA,0,18,0,0,0,NA,18,722,448,04/09/2018 10:37,A template containing a practice and an experimental phase,96,no,800,1280,15.72330189,yes,Exp_10_working.osexp,C:\Users\russe\Dropbox,no,mono,no,32,no,#ffffff,no,I confirm that my participation has been explained and consent to taking part in the experiment,NA,1,yes,800,ek,droid,2,15,16,C:/Users/russe/Dropbox/Exp_10/New folder/subject-6.csv,droid,Jazzy James,3.1.7,0,16,NA,1,NA,1,1,NA,16,377,NA,1159,NA,662,770,NA,377,2,legacy,Female,1024,2,48000,-16,experiment,6,even,droid,68708,NA,NA,92169,92550,81021,82844,NA,92171,91236,NA,NA,NA,NA,2370,NA,NA,92550,NA,82182,90466,NA,92171,Runtime for Android template,3,1159,3,0.08333,no,1280,-0.29965838
100,100,20,385.5,385.5,#000000,no,1,droid,legacy,legacy,0,I confirm that my participation has been explained and consent to taking part in the experiment,relative,1,undefined,undefined,1,0,1,0,19,19,0,0,0,19,0,0,0,0,0,0,NA,0,19,0,0,0,NA,19,751,135,04/09/2018 10:37,A template containing a practice and an experimental phase,96,no,800,1280,15.72330189,yes,Exp_10_working.osexp,C:\Users\russe\Dropbox,no,mono,no,32,no,#ffffff,no,I confirm that my participation has been explained and consent to taking part in the experiment,NA,1,yes,800,kc,droid,3,15,4,C:/Users/russe/Dropbox/Exp_10/New folder/subject-6.csv,droid,Jazzy James,3.1.7,0,4,NA,1,NA,1,1,NA,4,383,NA,1159,NA,662,770,NA,383,2,legacy,Female,1024,2,48000,-16,experiment,6,even,droid,68708,NA,NA,92603,92989,81021,82844,NA,92604,91236,NA,NA,NA,NA,2370,NA,NA,92989,NA,82182,90466,NA,92605,Runtime for Android template,4,1542,4,0.125,no,1280,-0.260187428
100,100,20,392.2,392.2,#000000,no,1,droid,legacy,legacy,0,I confirm that my participation has been explained and consent to taking part in the experiment,relative,1,undefined,undefined,1,0,1,0,20,20,0,0,0,20,0,0,0,0,0,0,NA,0,20,0,0,0,NA,20,957,434,04/09/2018 10:37,A template containing a practice and an experimental phase,96,no,800,1280,15.72330189,yes,Exp_10_working.osexp,C:\Users\russe\Dropbox,no,mono,no,32,no,#ffffff,no,I confirm that my participation has been explained and consent to taking part in the experiment,NA,1,yes,800,cl,droid,4,15,17,C:/Users/russe/Dropbox/Exp_10/New folder/subject-6.csv,droid,Jazzy James,3.1.7,0,17,NA,1,NA,1,1,NA,17,419,NA,1159,NA,662,770,NA,419,2,legacy,Female,1024,2,48000,-16,experiment,6,even,droid,68708,NA,NA,93071,93494,81021,82844,NA,93073,91236,NA,NA,NA,NA,2370,NA,NA,93494,NA,82182,90466,NA,93073,Runtime for Android template,5,1961,5,0.1,no,1280,-0.023361715
100,100,20,393.1666667,393.1666667,#000000,no,1,droid,legacy,legacy,0,I confirm that my participation has been explained and consent to taking part in the experiment,relative,1,undefined,undefined,1,0,1,0,21,21,0,0,0,21,0,0,0,0,0,0,NA,0,21,0,0,0,NA,21,396,714,04/09/2018 10:37,A template containing a practice and an experimental phase,96,no,800,1280,15.72330189,yes,Exp_10_working.osexp,C:\Users\russe\Dropbox,no,mono,no,32,no,#ffffff,no,I confirm that my participation has been explained and consent to taking part in the experiment,NA,1,yes,800,lm,droid,5,15,20,C:/Users/russe/Dropbox/Exp_10/New folder/subject-6.csv,droid,Jazzy James,3.1.7,0,20,NA,1,NA,1,1,NA,20,398,NA,1159,NA,662,770,NA,398,2,legacy,Female,1024,2,48000,-16,experiment,6,even,droid,68708,NA,NA,93556,93958,81021,82844,NA,93557,91236,NA,NA,NA,NA,2370,NA,NA,93958,NA,82182,90466,NA,93558,Runtime for Android template,6,2359,6,0.25,no,1280,-0.161510048
100,100,20,390.1428571,390.1428571,#000000,no,1,droid,legacy,legacy,0,I confirm that my participation has been explained and consent to taking part in the experiment,relative,1,undefined,undefined,1,0,1,0,22,22,0,0,0,22,0,0,0,0,0,0,NA,0,22,0,0,0,NA,22,305,241,04/09/2018 10:37,A template containing a practice and an experimental phase,96,no,800,1280,15.72330189,yes,Exp_10_working.osexp,C:\Users\russe\Dropbox,no,mono,no,32,no,#ffffff,no,I confirm that my participation has been explained and consent to taking part in the experiment,NA,2,yes,800,me,droid,6,15,8,C:/Users/russe/Dropbox/Exp_10/New folder/subject-6.csv,droid,Jazzy James,3.1.7,0,8,NA,1,NA,1,1,NA,8,372,NA,1159,NA,662,770,NA,372,2,legacy,Female,1024,2,48000,-16,experiment,6,even,droid,68708,NA,NA,94006,94382,81021,82844,NA,94008,91236,NA,NA,NA,NA,2370,NA,NA,94382,NA,82182,90466,NA,94008,Runtime for Android template,7,2731,7,0.22222,no,1280,-0.33255084
100,100,20,390.875,390.875,#000000,no,1,droid,legacy,legacy,0,I confirm that my participation has been explained and consent to taking part in the experiment,relative,1,undefined,undefined,1,0,1,0,23,23,0,0,0,23,0,0,0,0,0,0,NA,0,23,0,0,0,NA,23,337,150,04/09/2018 10:37,A template containing a practice and an experimental phase,96,no,800,1280,15.72330189,yes,Exp_10_working.osexp,C:\Users\russe\Dropbox,no,mono,no,32,no,#ffffff,no,I confirm that my participation has been explained and consent to taking part in the experiment,NA,1,yes,800,ea,droid,7,15,2,C:/Users/russe/Dropbox/Exp_10/New folder/subject-6.csv,droid,Jazzy James,3.1.7,0,2,NA,1,NA,1,1,NA,2,396,NA,1159,NA,662,770,NA,396,2,legacy,Female,1024,2,48000,-16,experiment,6,even,droid,68708,NA,NA,94446,94845,81021,82844,NA,94447,91236,NA,NA,NA,NA,2370,NA,NA,94846,NA,82182,90466,NA,94448,Runtime for Android template,8,3127,8,0.08333,no,1280,-0.174667032
88.88888889,88.88888889,20,405.7777778,405.7777778,#000000,no,1,droid,legacy,legacy,0,I confirm that my participation has been explained and consent to taking part in the experiment,relative,0,undefined,undefined,0,0,1,0,24,24,0,0,0,24,0,0,0,0,0,0,NA,0,24,0,0,0,NA,24,892,706,04/09/2018 10:37,A template containing a practice and an experimental phase,96,no,800,1280,15.72330189,yes,Exp_10_working.osexp,C:\Users\russe\Dropbox,no,mono,no,32,no,#ffffff,no,I confirm that my participation has been explained and consent to taking part in the experiment,NA,2,yes,800,ao,droid,8,15,22,C:/Users/russe/Dropbox/Exp_10/New folder/subject-6.csv,droid,Jazzy James,3.1.7,0,23,NA,1,NA,1,1,NA,23,525,NA,1159,NA,662,770,NA,525,2,legacy,Female,1024,2,48000,-16,experiment,6,even,droid,68708,NA,NA,94910,95438,81021,82844,NA,94911,91236,NA,NA,NA,NA,2370,NA,NA,95438,NA,82182,90466,NA,94911,Runtime for Android template,8,3652,9,0.33333,no,1280,0.673958437
90,90,20,401.4,401.4,#000000,no,1,droid,legacy,legacy,0,I confirm that my participation has been explained and consent to taking part in the experiment,relative,1,undefined,undefined,1,0,1,0,25,25,0,0,0,25,0,0,0,0,0,0,NA,0,25,0,0,0,NA,25,623,533,04/09/2018 10:37,A template containing a practice and an experimental phase,96,no,800,1280,15.72330189,yes,Exp_10_working.osexp,C:\Users\russe\Dropbox,no,mono,no,32,no,#ffffff,no,I confirm that my participation has been explained and consent to taking part in the experiment,NA,1,yes,800,oj,droid,9,15,15,C:/Users/russe/Dropbox/Exp_10/New folder/subject-6.csv,droid,Jazzy James,3.1.7,0,15,NA,1,NA,1,1,NA,15,362,NA,1159,NA,662,770,NA,362,2,legacy,Female,1024,2,48000,-16,experiment,6,even,droid,68708,NA,NA,95497,95862,81021,82844,NA,95498,91236,NA,NA,NA,NA,2370,NA,NA,95862,NA,82182,90466,NA,95498,Runtime for Android template,9,4014,10,0.0625,no,1280,-0.39833576
90.90909091,90.90909091,20,397.4545455,397.4545455,#000000,no,1,droid,legacy,legacy,0,I confirm that my participation has been explained and consent to taking part in the experiment,relative,1,undefined,undefined,1,0,1,0,26,26,0,0,0,26,0,0,0,0,0,0,NA,0,26,0,0,0,NA,26,597,679,04/09/2018 10:37,A template containing a practice and an experimental phase,96,no,800,1280,15.72330189,yes,Exp_10_working.osexp,C:\Users\russe\Dropbox,no,mono,no,32,no,#ffffff,no,I confirm that my participation has been explained and consent to taking part in the experiment,NA,1,yes,800,jn,droid,10,15,21,C:/Users/russe/Dropbox/Exp_10/New folder/subject-6.csv,droid,Jazzy James,3.1.7,0,21,NA,1,NA,1,1,NA,21,358,NA,1159,NA,662,770,NA,358,2,legacy,Female,1024,2,48000,-16,experiment,6,even,droid,68708,NA,NA,95916,96278,81021,82844,NA,95918,91236,NA,NA,NA,NA,2370,NA,NA,96278,NA,82182,90466,NA,95918,Runtime for Android template,10,4372,11,0.125,no,1280,-0.424649728
91.66666667,91.66666667,20,394.9166667,394.9166667,#000000,no,1,droid,legacy,legacy,0,I confirm that my participation has been explained and consent to taking part in the experiment,relative,1,undefined,undefined,1,0,1,0,27,27,0,0,0,27,0,0,0,0,0,0,NA,0,27,0,0,0,NA,27,961,364,04/09/2018 10:37,A template containing a practice and an experimental phase,96,no,800,1280,15.72330189,yes,Exp_10_working.osexp,C:\Users\russe\Dropbox,no,mono,no,32,no,#ffffff,no,I confirm that my participation has been explained and consent to taking part in the experiment,NA,4,yes,800,nh,droid,11,15,11,C:/Users/russe/Dropbox/Exp_10/New folder/subject-6.csv,droid,Jazzy James,3.1.7,0,11,NA,1,NA,1,1,NA,11,367,NA,1159,NA,662,770,NA,367,2,legacy,Female,1024,2,48000,-16,experiment,6,even,droid,68708,NA,NA,96339,96710,81021,82844,NA,96341,91236,NA,NA,NA,NA,2370,NA,NA,96710,NA,82182,90466,NA,96341,Runtime for Android template,11,4739,12,0.8,no,1280,-0.3654433
84.61538462,84.61538462,20,398.7692308,398.7692308,#000000,no,1,droid,legacy,legacy,0,I confirm that my participation has been explained and consent to taking part in the experiment,relative,0,undefined,undefined,0,0,1,0,28,28,0,0,0,28,0,0,0,0,0,0,NA,0,28,0,0,0,NA,28,192,546,04/09/2018 10:37,A template containing a practice and an experimental phase,96,no,800,1280,15.72330189,yes,Exp_10_working.osexp,C:\Users\russe\Dropbox,no,mono,no,32,no,#ffffff,no,I confirm that my participation has been explained and consent to taking part in the experiment,NA,1,yes,800,hi,droid,12,15,14,C:/Users/russe/Dropbox/Exp_10/New folder/subject-6.csv,droid,Jazzy James,3.1.7,0,13,NA,1,NA,1,1,NA,13,445,NA,1159,NA,662,770,NA,445,2,legacy,Female,1024,2,48000,-16,experiment,6,even,droid,68708,NA,NA,96789,97238,81021,82844,NA,96791,91236,NA,NA,NA,NA,2370,NA,NA,97238,NA,82182,90466,NA,96791,Runtime for Android template,11,5184,13,0.07692,no,1280,0.147679077
85.71428571,85.71428571,20,421.2857143,421.2857143,#000000,no,1,droid,legacy,legacy,0,I confirm that my participation has been explained and consent to taking part in the experiment,relative,1,undefined,undefined,1,0,1,0,29,29,0,0,0,29,0,0,0,0,0,0,NA,0,29,0,0,0,NA,29,777,107,04/09/2018 10:37,A template containing a practice and an experimental phase,96,no,800,1280,15.72330189,yes,Exp_10_working.osexp,C:\Users\russe\Dropbox,no,mono,no,32,no,#ffffff,no,I confirm that my participation has been explained and consent to taking part in the experiment,NA,1,yes,800,ic,droid,13,15,4,C:/Users/russe/Dropbox/Exp_10/New folder/subject-6.csv,droid,Jazzy James,3.1.7,0,4,NA,1,NA,1,1,NA,4,714,NA,1159,NA,662,770,NA,714,2,legacy,Female,1024,2,48000,-16,experiment,6,even,droid,68708,NA,NA,97297,98014,81021,82844,NA,97298,91236,NA,NA,NA,NA,2370,NA,NA,98014,NA,82182,90466,NA,97298,Runtime for Android template,12,5898,14,1,no,1280,1.917293427
80,80,20,417.3333333,417.3333333,#000000,no,1,droid,legacy,legacy,0,I confirm that my participation has been explained and consent to taking part in the experiment,relative,0,undefined,undefined,0,0,1,0,30,30,0,0,0,30,0,0,0,0,0,0,NA,0,30,0,0,0,NA,30,705,414,04/09/2018 10:37,A template containing a practice and an experimental phase,96,no,800,1280,15.72330189,yes,Exp_10_working.osexp,C:\Users\russe\Dropbox,no,mono,no,32,no,#ffffff,no,I confirm that my participation has been explained and consent to taking part in the experiment,NA,1,yes,800,cg,droid,14,15,10,C:/Users/russe/Dropbox/Exp_10/New folder/subject-6.csv,droid,Jazzy James,3.1.7,0,16,NA,1,NA,1,1,NA,16,362,NA,1159,NA,662,770,NA,362,2,legacy,Female,1024,2,48000,-16,experiment,6,even,droid,68708,NA,NA,98073,98438,81021,82844,NA,98074,91236,NA,NA,NA,NA,2370,NA,NA,98438,NA,82182,90466,NA,98074,Runtime for Android template,12,6260,15,0.1,no,1280,-0.39833576
75,75,20,414,414,#000000,no,1,droid,legacy,legacy,0,I confirm that my participation has been explained and consent to taking part in the experiment,relative,0,undefined,undefined,0,0,1,0,31,31,0,0,0,31,0,0,0,0,0,0,NA,0,31,0,0,0,NA,31,1052,610,04/09/2018 10:37,A template containing a practice and an experimental phase,96,no,800,1280,15.72330189,yes,Exp_10_working.osexp,C:\Users\russe\Dropbox,no,mono,no,32,no,#ffffff,no,I confirm that my participation has been explained and consent to taking part in the experiment,NA,1,yes,800,gl,droid,15,15,17,C:/Users/russe/Dropbox/Exp_10/New folder/subject-6.csv,droid,Jazzy James,3.1.7,0,23,NA,1,NA,1,1,NA,23,364,NA,1159,NA,662,770,NA,364,2,legacy,Female,1024,2,48000,-16,experiment,6,even,droid,68708,NA,NA,98559,98925,81021,82844,NA,98560,91236,NA,NA,NA,NA,2370,NA,NA,98925,NA,82182,90466,NA,98560,Runtime for Android template,12,6624,16,0.2,no,1280,-0.385178776
76.47058824,76.47058824,20,416.1176471,416.1176471,#000000,no,1,droid,legacy,legacy,0,I confirm that my participation has been explained and consent to taking part in the experiment,relative,1,undefined,undefined,1,0,1,0,32,32,0,0,0,32,0,0,0,0,0,0,NA,0,32,0,0,0,NA,32,709,142,04/09/2018 10:37,A template containing a practice and an experimental phase,96,no,800,1280,15.72330189,yes,Exp_10_working.osexp,C:\Users\russe\Dropbox,no,mono,no,32,no,#ffffff,no,I confirm that my participation has been explained and consent to taking part in the experiment,NA,1,yes,800,lc,droid,16,15,4,C:/Users/russe/Dropbox/Exp_10/New folder/subject-6.csv,droid,Jazzy James,3.1.7,0,4,NA,1,NA,1,1,NA,4,450,NA,1159,NA,662,770,NA,450,2,legacy,Female,1024,2,48000,-16,experiment,6,even,droid,68708,NA,NA,98993,99446,81021,82844,NA,98994,91236,NA,NA,NA,NA,2370,NA,NA,99446,NA,82182,90466,NA,98994,Runtime for Android template,13,7074,17,0.25,no,1280,0.180571537
77.77777778,77.77777778,20,417.3888889,417.3888889,#000000,no,1,droid,legacy,legacy,0,I confirm that my participation has been explained and consent to taking part in the experiment,relative,1,undefined,undefined,1,0,1,0,33,33,0,0,0,33,0,0,0,0,0,0,NA,0,33,0,0,0,NA,33,756,651,04/09/2018 10:37,A template containing a practice and an experimental phase,96,no,800,1280,15.72330189,yes,Exp_10_working.osexp,C:\Users\russe\Dropbox,no,mono,no,32,no,#ffffff,no,I confirm that my participation has been explained and consent to taking part in the experiment,NA,3,yes,800,co,droid,17,15,22,C:/Users/russe/Dropbox/Exp_10/New folder/subject-6.csv,droid,Jazzy James,3.1.7,0,22,NA,1,NA,1,1,NA,22,439,NA,1159,NA,662,770,NA,439,2,legacy,Female,1024,2,48000,-16,experiment,6,even,droid,68708,NA,NA,99508,99950,81021,82844,NA,99509,91236,NA,NA,NA,NA,2370,NA,NA,99950,NA,82182,90466,NA,99509,Runtime for Android template,14,7513,18,0.3,no,1280,0.108208125
78.94736842,78.94736842,20,415.4210526,415.4210526,#000000,no,1,droid,legacy,legacy,0,I confirm that my participation has been explained and consent to taking part in the experiment,relative,1,undefined,undefined,1,0,1,0,34,34,0,0,0,34,0,0,0,0,0,0,NA,0,34,0,0,0,NA,34,940,306,04/09/2018 10:37,A template containing a practice and an experimental phase,96,no,800,1280,15.72330189,yes,Exp_10_working.osexp,C:\Users\russe\Dropbox,no,mono,no,32,no,#ffffff,no,I confirm that my participation has been explained and consent to taking part in the experiment,NA,1,yes,800,oh,droid,18,15,11,C:/Users/russe/Dropbox/Exp_10/New folder/subject-6.csv,droid,Jazzy James,3.1.7,0,11,NA,1,NA,1,1,NA,11,380,NA,1159,NA,662,770,NA,380,2,legacy,Female,1024,2,48000,-16,experiment,6,even,droid,68708,NA,NA,100006,100389,81021,82844,NA,100008,91236,NA,NA,NA,NA,2370,NA,NA,100389,NA,82182,90466,NA,100008,Runtime for Android template,15,7893,19,0.0625,no,1280,-0.279922904
80,80,20,415.15,415.15,#000000,no,1,droid,legacy,legacy,0,I confirm that my participation has been explained and consent to taking part in the experiment,relative,1,undefined,undefined,1,0,1,0,35,35,0,0,0,35,0,0,0,0,0,0,NA,0,35,0,0,0,NA,35,566,467,04/09/2018 10:37,A template containing a practice and an experimental phase,96,no,800,1280,15.72330189,yes,Exp_10_working.osexp,C:\Users\russe\Dropbox,no,mono,no,32,no,#ffffff,no,I confirm that my participation has been explained and consent to taking part in the experiment,NA,2,yes,800,hj,droid,19,15,15,C:/Users/russe/Dropbox/Exp_10/New folder/subject-6.csv,droid,Jazzy James,3.1.7,0,15,NA,1,NA,1,1,NA,15,410,NA,1159,NA,662,770,NA,410,2,legacy,Female,1024,2,48000,-16,experiment,6,even,droid,68708,NA,NA,100457,100870,81021,82844,NA,100458,91236,NA,NA,NA,NA,2370,NA,NA,100870,NA,82182,90466,NA,100458,Runtime for Android template,16,8303,20,0.15385,no,1280,-0.082568144
80.95238095,80.95238095,20,411.7142857,411.7142857,#000000,no,1,droid,legacy,legacy,0,I confirm that my participation has been explained and consent to taking part in the experiment,relative,1,undefined,undefined,1,0,1,0,36,36,0,0,0,36,0,0,0,0,0,0,NA,0,36,0,0,0,NA,36,732,668,04/09/2018 10:37,A template containing a practice and an experimental phase,96,no,800,1280,15.72330189,yes,Exp_10_working.osexp,C:\Users\russe\Dropbox,no,mono,no,32,no,#ffffff,no,I confirm that my participation has been explained and consent to taking part in the experiment,NA,2,yes,800,jo,droid,20,15,22,C:/Users/russe/Dropbox/Exp_10/New folder/subject-6.csv,droid,Jazzy James,3.1.7,0,22,NA,1,NA,1,1,NA,22,343,NA,1159,NA,662,770,NA,343,2,legacy,Female,1024,2,48000,-16,experiment,6,even,droid,68708,NA,NA,100939,101286,81021,82844,NA,100941,91236,NA,NA,NA,NA,2370,NA,NA,101286,NA,82182,90466,NA,100941,Runtime for Android template,17,8646,21,0.25,no,1280,-0.523327108
81.81818182,81.81818182,20,411.7272727,411.7272727,#000000,no,1,droid,legacy,legacy,0,I confirm that my participation has been explained and consent to taking part in the experiment,relative,1,undefined,undefined,1,0,1,0,37,37,0,0,0,37,0,0,0,0,0,0,NA,0,37,0,0,0,NA,37,398,329,04/09/2018 10:37,A template containing a practice and an experimental phase,96,no,800,1280,15.72330189,yes,Exp_10_working.osexp,C:\Users\russe\Dropbox,no,mono,no,32,no,#ffffff,no,I confirm that my participation has been explained and consent to taking part in the experiment,NA,2,yes,800,oe,droid,21,15,8,C:/Users/russe/Dropbox/Exp_10/New folder/subject-6.csv,droid,Jazzy James,3.1.7,0,8,NA,1,NA,1,1,NA,8,412,NA,1159,NA,662,770,NA,412,2,legacy,Female,1024,2,48000,-16,experiment,6,even,droid,68708,NA,NA,101342,101757,81021,82844,NA,101344,91236,NA,NA,NA,NA,2370,NA,NA,101758,NA,82182,90466,NA,101344,Runtime for Android template,18,9058,22,0.125,no,1280,-0.06941116
82.60869565,82.60869565,20,408.3913043,408.3913043,#000000,no,1,droid,legacy,legacy,0,I confirm that my participation has been explained and consent to taking part in the experiment,relative,1,undefined,undefined,1,0,1,0,38,38,0,0,0,38,0,0,0,0,0,0,NA,0,38,0,0,0,NA,38,516,328,04/09/2018 10:37,A template containing a practice and an experimental phase,96,no,800,1280,15.72330189,yes,Exp_10_working.osexp,C:\Users\russe\Dropbox,no,mono,no,32,no,#ffffff,no,I confirm that my participation has been explained and consent to taking part in the experiment,NA,1,yes,800,ef,droid,22,15,9,C:/Users/russe/Dropbox/Exp_10/New folder/subject-6.csv,droid,Jazzy James,3.1.7,0,9,NA,1,NA,1,1,NA,9,335,NA,1159,NA,662,770,NA,335,2,legacy,Female,1024,2,48000,-16,experiment,6,even,droid,68708,NA,NA,101835,102173,81021,82844,NA,101837,91236,NA,NA,NA,NA,2370,NA,NA,102174,NA,82182,90466,NA,101837,Runtime for Android template,19,9393,23,0.08333,no,1280,-0.575955044
83.33333333,83.33333333,20,408.7083333,408.7083333,#000000,no,1,droid,legacy,legacy,0,I confirm that my participation has been explained and consent to taking part in the experiment,relative,1,undefined,undefined,1,0,1,0,39,39,0,0,0,39,0,0,0,0,0,0,NA,0,39,0,0,0,NA,39,768,740,04/09/2018 10:37,A template containing a practice and an experimental phase,96,no,800,1280,15.72330189,yes,Exp_10_working.osexp,C:\Users\russe\Dropbox,no,mono,no,32,no,#ffffff,no,I confirm that my participation has been explained and consent to taking part in the experiment,NA,1,yes,800,fo,droid,23,15,22,C:/Users/russe/Dropbox/Exp_10/New folder/subject-6.csv,droid,Jazzy James,3.1.7,0,22,NA,1,NA,1,1,NA,22,416,NA,1159,NA,662,770,NA,416,2,legacy,Female,1024,2,48000,-16,experiment,6,even,droid,68708,NA,NA,102227,102646,81021,82844,NA,102228,91236,NA,NA,NA,NA,2370,NA,NA,102646,NA,82182,90466,NA,102228,Runtime for Android template,20,9809,24,0.33333,no,1280,-0.043097192
84,84,20,409.96,409.96,#000000,no,1,droid,legacy,legacy,0,I confirm that my participation has been explained and consent to taking part in the experiment,relative,1,undefined,undefined,1,0,1,0,40,40,0,0,0,40,0,0,0,0,0,0,NA,0,40,0,0,0,NA,40,397,709,04/09/2018 10:37,A template containing a practice and an experimental phase,96,no,800,1280,15.72330189,yes,Exp_10_working.osexp,C:\Users\russe\Dropbox,no,mono,no,32,no,#ffffff,no,I confirm that my participation has been explained and consent to taking part in the experiment,NA,1,yes,800,om,droid,24,15,20,C:/Users/russe/Dropbox/Exp_10/New folder/subject-6.csv,droid,Jazzy James,3.1.7,0,20,NA,1,NA,1,1,NA,20,440,NA,1159,NA,662,770,NA,440,2,legacy,Female,1024,2,48000,-16,experiment,6,even,droid,68708,NA,NA,102706,103151,81021,82844,NA,102708,91236,NA,NA,NA,NA,2370,NA,NA,103151,NA,82182,90466,NA,102708,Runtime for Android template,21,10249,25,0.0625,no,1280,0.114786617
84.61538462,84.61538462,20,409.9615385,409.9615385,#000000,no,1,droid,legacy,legacy,0,I confirm that my participation has been explained and consent to taking part in the experiment,relative,1,undefined,undefined,1,0,1,0,41,41,0,0,0,41,0,0,0,0,0,0,NA,0,41,0,0,0,NA,41,481,199,04/09/2018 10:37,A template containing a practice and an experimental phase,96,no,800,1280,15.72330189,yes,Exp_10_working.osexp,C:\Users\russe\Dropbox,no,mono,no,32,no,#ffffff,no,I confirm that my participation has been explained and consent to taking part in the experiment,NA,1,yes,800,mb,droid,25,15,3,C:/Users/russe/Dropbox/Exp_10/New folder/subject-6.csv,droid,Jazzy James,3.1.7,0,3,NA,1,NA,1,1,NA,3,410,NA,1159,NA,662,770,NA,410,2,legacy,Female,1024,2,48000,-16,experiment,6,even,droid,68708,NA,NA,103217,103630,81021,82844,NA,103218,91236,NA,NA,NA,NA,2370,NA,NA,103630,NA,82182,90466,NA,103218,Runtime for Android template,22,10659,26,0.11111,no,1280,-0.082568144
81.48148148,81.48148148,20,408.8888889,408.8888889,#000000,no,1,droid,legacy,legacy,0,I confirm that my participation has been explained and consent to taking part in the experiment,relative,0,undefined,undefined,0,0,1,0,42,42,0,0,0,42,0,0,0,0,0,0,NA,0,42,0,0,0,NA,42,1164,294,04/09/2018 10:37,A template containing a practice and an experimental phase,96,no,800,1280,15.72330189,yes,Exp_10_working.osexp,C:\Users\russe\Dropbox,no,mono,no,32,no,#ffffff,no,I confirm that my participation has been explained and consent to taking part in the experiment,NA,1,yes,800,bh,droid,26,15,11,C:/Users/russe/Dropbox/Exp_10/New folder/subject-6.csv,droid,Jazzy James,3.1.7,0,12,NA,1,NA,1,1,NA,12,381,NA,1159,NA,662,770,NA,381,2,legacy,Female,1024,2,48000,-16,experiment,6,even,droid,68708,NA,NA,103693,104077,81021,82844,NA,103695,91236,NA,NA,NA,NA,2370,NA,NA,104077,NA,82182,90466,NA,103695,Runtime for Android template,22,11040,27,0.125,no,1280,-0.273344412
82.14285714,82.14285714,20,408.7857143,408.7857143,#000000,no,1,droid,legacy,legacy,0,I confirm that my participation has been explained and consent to taking part in the experiment,relative,1,undefined,undefined,1,0,1,0,43,43,0,0,0,43,0,0,0,0,0,0,NA,0,43,0,0,0,NA,43,923,338,04/09/2018 10:37,A template containing a practice and an experimental phase,96,no,800,1280,15.72330189,yes,Exp_10_working.osexp,C:\Users\russe\Dropbox,no,mono,no,32,no,#ffffff,no,I confirm that my participation has been explained and consent to taking part in the experiment,NA,1,yes,800,hh,droid,27,15,11,C:/Users/russe/Dropbox/Exp_10/New folder/subject-6.csv,droid,Jazzy James,3.1.7,0,11,NA,1,NA,1,1,NA,11,406,NA,1159,NA,662,770,NA,406,2,legacy,Female,1024,2,48000,-16,experiment,6,even,droid,68708,NA,NA,104140,104550,81021,82844,NA,104142,91236,NA,NA,NA,NA,2370,NA,NA,104550,NA,82182,90466,NA,104142,Runtime for Android template,23,11446,28,0.07692,no,1280,-0.108882112
82.75862069,82.75862069,20,410.0689655,410.0689655,#000000,no,1,droid,legacy,legacy,0,I confirm that my participation has been explained and consent to taking part in the experiment,relative,1,undefined,undefined,1,0,1,0,44,44,0,0,0,44,0,0,0,0,0,0,NA,0,44,0,0,0,NA,44,790,135,04/09/2018 10:37,A template containing a practice and an experimental phase,96,no,800,1280,15.72330189,yes,Exp_10_working.osexp,C:\Users\russe\Dropbox,no,mono,no,32,no,#ffffff,no,I confirm that my participation has been explained and consent to taking part in the experiment,NA,1,yes,800,hc,droid,28,15,4,C:/Users/russe/Dropbox/Exp_10/New folder/subject-6.csv,droid,Jazzy James,3.1.7,0,4,NA,1,NA,1,1,NA,4,446,NA,1159,NA,662,770,NA,446,2,legacy,Female,1024,2,48000,-16,experiment,6,even,droid,68708,NA,NA,104644,105093,81021,82844,NA,104646,91236,NA,NA,NA,NA,2370,NA,NA,105093,NA,82182,90466,NA,104646,Runtime for Android template,24,11892,29,0.07692,no,1280,0.154257569
83.33333333,83.33333333,20,409.8666667,409.8666667,#000000,no,1,droid,legacy,legacy,0,I confirm that my participation has been explained and consent to taking part in the experiment,relative,1,undefined,undefined,1,0,1,0,45,45,0,0,0,45,0,0,0,0,0,0,NA,0,45,0,0,0,NA,45,308,356,04/09/2018 10:37,A template containing a practice and an experimental phase,96,no,800,1280,15.72330189,yes,Exp_10_working.osexp,C:\Users\russe\Dropbox,no,mono,no,32,no,#ffffff,no,I confirm that my participation has been explained and consent to taking part in the experiment,NA,1,yes,800,ce,droid,29,15,8,C:/Users/russe/Dropbox/Exp_10/New folder/subject-6.csv,droid,Jazzy James,3.1.7,0,8,NA,1,NA,1,1,NA,8,404,NA,1159,NA,662,770,NA,404,2,legacy,Female,1024,2,48000,-16,experiment,6,even,droid,68708,NA,NA,105151,105557,81021,82844,NA,105152,91236,NA,NA,NA,NA,2370,NA,NA,105557,NA,82182,90466,NA,105152,Runtime for Android template,25,12296,30,0.1,no,1280,-0.122039096
83.87096774,83.87096774,20,409.6129032,409.6129032,#000000,no,1,droid,legacy,legacy,0,I confirm that my participation has been explained and consent to taking part in the experiment,relative,1,undefined,undefined,1,0,1,0,46,46,0,0,0,46,0,0,0,0,0,0,NA,0,46,0,0,0,NA,46,761,83,04/09/2018 10:37,A template containing a practice and an experimental phase,96,no,800,1280,15.72330189,yes,Exp_10_working.osexp,C:\Users\russe\Dropbox,no,mono,no,32,no,#ffffff,no,I confirm that my participation has been explained and consent to taking part in the experiment,NA,1,yes,800,ec,droid,30,15,4,C:/Users/russe/Dropbox/Exp_10/New folder/subject-6.csv,droid,Jazzy James,3.1.7,0,4,NA,1,NA,1,1,NA,4,402,NA,1159,NA,662,770,NA,402,2,legacy,Female,1024,2,48000,-16,experiment,6,even,droid,68708,NA,NA,105617,106022,81021,82844,NA,105618,91236,NA,NA,NA,NA,2370,NA,NA,106022,NA,82182,90466,NA,105618,Runtime for Android template,26,12698,31,0.08333,no,1280,-0.13519608
84.375,84.375,20,410.28125,410.28125,#000000,no,1,droid,legacy,legacy,0,I confirm that my participation has been explained and consent to taking part in the experiment,relative,1,undefined,undefined,1,0,1,0,47,47,0,0,0,47,0,0,0,0,0,0,NA,0,47,0,0,0,NA,47,763,54,04/09/2018 10:37,A template containing a practice and an experimental phase,96,no,800,1280,15.72330189,yes,Exp_10_working.osexp,C:\Users\russe\Dropbox,no,mono,no,32,no,#ffffff,no,I confirm that my participation has been explained and consent to taking part in the experiment,NA,1,yes,800,cc,droid,31,15,4,C:/Users/russe/Dropbox/Exp_10/New folder/subject-6.csv,droid,Jazzy James,3.1.7,0,4,NA,1,NA,1,1,NA,4,431,NA,1159,NA,662,770,NA,431,2,legacy,Female,1024,2,48000,-16,experiment,6,even,droid,68708,NA,NA,106083,106517,81021,82844,NA,106085,91236,NA,NA,NA,NA,2370,NA,NA,106517,NA,82182,90466,NA,106085,Runtime for Android template,27,13129,32,0.1,no,1280,0.055580189
84.84848485,84.84848485,20,411.030303,411.030303,#000000,no,1,droid,legacy,legacy,0,I confirm that my participation has been explained and consent to taking part in the experiment,relative,1,undefined,undefined,1,0,1,0,48,48,0,0,0,48,0,0,0,0,0,0,NA,0,48,0,0,0,NA,48,953,322,04/09/2018 10:37,A template containing a practice and an experimental phase,96,no,800,1280,15.72330189,yes,Exp_10_working.osexp,C:\Users\russe\Dropbox,no,mono,no,32,no,#ffffff,no,I confirm that my participation has been explained and consent to taking part in the experiment,NA,1,yes,800,ch,droid,32,15,11,C:/Users/russe/Dropbox/Exp_10/New folder/subject-6.csv,droid,Jazzy James,3.1.7,0,11,NA,1,NA,1,1,NA,11,435,NA,1159,NA,662,770,NA,435,2,legacy,Female,1024,2,48000,-16,experiment,6,even,droid,68708,NA,NA,106576,107014,81021,82844,NA,106577,91236,NA,NA,NA,NA,2370,NA,NA,107014,NA,82182,90466,NA,106577,Runtime for Android template,28,13564,33,0.1,no,1280,0.081894157
85.29411765,85.29411765,20,411.4117647,411.4117647,#000000,no,1,droid,legacy,legacy,0,I confirm that my participation has been explained and consent to taking part in the experiment,relative,1,undefined,undefined,1,0,1,0,49,49,0,0,0,49,0,0,0,0,0,0,NA,0,49,0,0,0,NA,49,361,256,04/09/2018 10:37,A template containing a practice and an experimental phase,96,no,800,1280,15.72330189,yes,Exp_10_working.osexp,C:\Users\russe\Dropbox,no,mono,no,32,no,#ffffff,no,I confirm that my participation has been explained and consent to taking part in the experiment,NA,1,yes,800,he,droid,33,15,8,C:/Users/russe/Dropbox/Exp_10/New folder/subject-6.csv,droid,Jazzy James,3.1.7,0,8,NA,1,NA,1,1,NA,8,424,NA,1159,NA,662,770,NA,424,2,legacy,Female,1024,2,48000,-16,experiment,6,even,droid,68708,NA,NA,107075,107502,81021,82844,NA,107076,91236,NA,NA,NA,NA,2370,NA,NA,107502,NA,82182,90466,NA,107076,Runtime for Android template,29,13988,34,0.07692,no,1280,0.009530745
85.71428571,85.71428571,20,411.6285714,411.6285714,#000000,no,1,droid,legacy,legacy,0,I confirm that my participation has been explained and consent to taking part in the experiment,relative,1,undefined,undefined,1,0,1,0,50,50,0,0,0,50,0,0,0,0,0,0,NA,0,50,0,0,0,NA,50,896,731,04/09/2018 10:37,A template containing a practice and an experimental phase,96,no,800,1280,15.72330189,yes,Exp_10_working.osexp,C:\Users\russe\Dropbox,no,mono,no,32,no,#ffffff,no,I confirm that my participation has been explained and consent to taking part in the experiment,NA,1,yes,800,ep,droid,34,15,23,C:/Users/russe/Dropbox/Exp_10/New folder/subject-6.csv,droid,Jazzy James,3.1.7,0,23,NA,1,NA,1,1,NA,23,419,NA,1159,NA,662,770,NA,419,2,legacy,Female,1024,2,48000,-16,experiment,6,even,droid,68708,NA,NA,107559,107982,81021,82844,NA,107561,91236,NA,NA,NA,NA,2370,NA,NA,107982,NA,82182,90466,NA,107561,Runtime for Android template,30,14407,35,0.08333,no,1280,-0.023361715
86.11111111,86.11111111,20,411,411,#000000,no,1,droid,legacy,legacy,0,I confirm that my participation has been explained and consent to taking part in the experiment,relative,1,undefined,undefined,1,0,1,0,51,51,0,0,0,51,0,0,0,0,0,0,NA,0,51,0,0,0,NA,51,573,306,04/09/2018 10:37,A template containing a practice and an experimental phase,96,no,800,1280,15.72330189,yes,Exp_10_working.osexp,C:\Users\russe\Dropbox,no,mono,no,32,no,#ffffff,no,I confirm that my participation has been explained and consent to taking part in the experiment,NA,1,yes,800,pf,droid,35,15,9,C:/Users/russe/Dropbox/Exp_10/New folder/subject-6.csv,droid,Jazzy James,3.1.7,0,9,NA,1,NA,1,1,NA,9,389,NA,1159,NA,662,770,NA,389,2,legacy,Female,1024,2,48000,-16,experiment,6,even,droid,68708,NA,NA,108053,108445,81021,82844,NA,108055,91236,NA,NA,NA,NA,2370,NA,NA,108445,NA,82182,90466,NA,108055,Runtime for Android template,31,14796,36,0.2,no,1280,-0.220716476
86.48648649,86.48648649,20,411.2162162,411.2162162,#000000,no,1,droid,legacy,legacy,0,I confirm that my participation has been explained and consent to taking part in the experiment,relative,1,undefined,undefined,1,0,1,0,52,52,0,0,0,52,0,0,0,0,0,0,NA,0,52,0,0,0,NA,52,312,327,04/09/2018 10:37,A template containing a practice and an experimental phase,96,no,800,1280,15.72330189,yes,Exp_10_working.osexp,C:\Users\russe\Dropbox,no,mono,no,32,no,#ffffff,no,I confirm that my participation has been explained and consent to taking part in the experiment,NA,1,yes,800,fe,droid,36,15,8,C:/Users/russe/Dropbox/Exp_10/New folder/subject-6.csv,droid,Jazzy James,3.1.7,0,8,NA,1,NA,1,1,NA,8,419,NA,1159,NA,662,770,NA,419,2,legacy,Female,1024,2,48000,-16,experiment,6,even,droid,68708,NA,NA,108519,108942,81021,82844,NA,108521,91236,NA,NA,NA,NA,2370,NA,NA,108942,NA,82182,90466,NA,108521,Runtime for Android template,32,15215,37,0.33333,no,1280,-0.023361715
86.84210526,86.84210526,20,410.1315789,410.1315789,#000000,no,1,droid,legacy,legacy,0,I confirm that my participation has been explained and consent to taking part in the experiment,relative,1,undefined,undefined,1,0,1,0,53,53,0,0,0,53,0,0,0,0,0,0,NA,0,53,0,0,0,NA,53,970,329,04/09/2018 10:37,A template containing a practice and an experimental phase,96,no,800,1280,15.72330189,yes,Exp_10_working.osexp,C:\Users\russe\Dropbox,no,mono,no,32,no,#ffffff,no,I confirm that my participation has been explained and consent to taking part in the experiment,NA,1,yes,800,eh,droid,37,15,11,C:/Users/russe/Dropbox/Exp_10/New folder/subject-6.csv,droid,Jazzy James,3.1.7,0,11,NA,1,NA,1,1,NA,11,370,NA,1159,NA,662,770,NA,370,2,legacy,Female,1024,2,48000,-16,experiment,6,even,droid,68708,NA,NA,109000,109374,81021,82844,NA,109002,91236,NA,NA,NA,NA,2370,NA,NA,109374,NA,82182,90466,NA,109002,Runtime for Android template,33,15585,38,0.08333,no,1280,-0.345707824
84.61538462,84.61538462,20,410.6923077,410.6923077,#000000,no,1,droid,legacy,legacy,0,I confirm that my participation has been explained and consent to taking part in the experiment,relative,0,undefined,undefined,0,0,1,0,54,54,0,0,0,54,0,0,0,0,0,0,NA,0,54,0,0,0,NA,54,486,615,04/09/2018 10:37,A template containing a practice and an experimental phase,96,no,800,1280,15.72330189,yes,Exp_10_working.osexp,C:\Users\russe\Dropbox,no,mono,no,32,no,#ffffff,no,I confirm that my participation has been explained and consent to taking part in the experiment,NA,1,yes,800,hm,droid,38,15,20,C:/Users/russe/Dropbox/Exp_10/New folder/subject-6.csv,droid,Jazzy James,3.1.7,0,21,NA,1,NA,1,1,NA,21,432,NA,1159,NA,662,770,NA,432,2,legacy,Female,1024,2,48000,-16,experiment,6,even,droid,68708,NA,NA,109442,109878,81021,82844,NA,109444,91236,NA,NA,NA,NA,2370,NA,NA,109878,NA,82182,90466,NA,109444,Runtime for Android template,33,16017,39,0.07692,no,1280,0.062158681
85,85,20,410.125,410.125,#000000,no,1,droid,legacy,legacy,0,I confirm that my participation has been explained and consent to taking part in the experiment,relative,1,undefined,undefined,1,0,1,0,55,55,0,0,0,55,0,0,0,0,0,0,NA,0,55,0,0,0,NA,55,579,284,04/09/2018 10:37,A template containing a practice and an experimental phase,96,no,800,1280,15.72330189,yes,Exp_10_working.osexp,C:\Users\russe\Dropbox,no,mono,no,32,no,#ffffff,no,I confirm that my participation has been explained and consent to taking part in the experiment,NA,1,yes,800,mf,droid,39,15,9,C:/Users/russe/Dropbox/Exp_10/New folder/subject-6.csv,droid,Jazzy James,3.1.7,0,9,NA,1,NA,1,1,NA,9,388,NA,1159,NA,662,770,NA,388,2,legacy,Female,1024,2,48000,-16,experiment,6,even,droid,68708,NA,NA,109943,110334,81021,82844,NA,109944,91236,NA,NA,NA,NA,2370,NA,NA,110334,NA,82182,90466,NA,109944,Runtime for Android template,34,16405,40,0.11111,no,1280,-0.227294968
85.36585366,85.36585366,20,409.7317073,409.7317073,#000000,no,1,droid,legacy,legacy,0,I confirm that my participation has been explained and consent to taking part in the experiment,relative,1,undefined,undefined,1,0,1,0,56,56,0,0,0,56,0,0,0,0,0,0,NA,0,56,0,0,0,NA,56,403,609,04/09/2018 10:37,A template containing a practice and an experimental phase,96,no,800,1280,15.72330189,yes,Exp_10_working.osexp,C:\Users\russe\Dropbox,no,mono,no,32,no,#ffffff,no,I confirm that my participation has been explained and consent to taking part in the experiment,NA,1,yes,800,fm,droid,40,15,20,C:/Users/russe/Dropbox/Exp_10/New folder/subject-6.csv,droid,Jazzy James,3.1.7,0,20,NA,1,NA,1,1,NA,20,394,NA,1159,NA,662,770,NA,394,2,legacy,Female,1024,2,48000,-16,experiment,6,even,droid,68708,NA,NA,110408,110806,81021,82844,NA,110410,91236,NA,NA,NA,NA,2370,NA,NA,110806,NA,82182,90466,NA,110410,Runtime for Android template,35,16799,41,0.33333,no,1280,-0.187824016
85.71428571,85.71428571,20,410.5238095,410.5238095,#000000,no,1,droid,legacy,legacy,0,I confirm that my participation has been explained and consent to taking part in the experiment,relative,1,undefined,undefined,1,0,1,0,57,57,0,0,0,57,0,0,0,0,0,0,NA,0,57,0,0,0,NA,57,519,716,04/09/2018 10:37,A template containing a practice and an experimental phase,96,no,800,1280,15.72330189,yes,Exp_10_working.osexp,C:\Users\russe\Dropbox,no,mono,no,32,no,#ffffff,no,I confirm that my participation has been explained and consent to taking part in the experiment,NA,1,yes,800,mn,droid,41,15,21,C:/Users/russe/Dropbox/Exp_10/New folder/subject-6.csv,droid,Jazzy James,3.1.7,0,21,NA,1,NA,1,1,NA,21,443,NA,1159,NA,662,770,NA,443,2,legacy,Female,1024,2,48000,-16,experiment,6,even,droid,68708,NA,NA,110879,111326,81021,82844,NA,110881,91236,NA,NA,NA,NA,2370,NA,NA,111326,NA,82182,90466,NA,110881,Runtime for Android template,36,17242,42,0.11111,no,1280,0.134522093
86.04651163,86.04651163,20,410.3255814,410.3255814,#000000,no,1,droid,legacy,legacy,0,I confirm that my participation has been explained and consent to taking part in the experiment,relative,1,undefined,undefined,1,0,1,0,58,58,0,0,0,58,0,0,0,0,0,0,NA,0,58,0,0,0,NA,58,893,339,04/09/2018 10:37,A template containing a practice and an experimental phase,96,no,800,1280,15.72330189,yes,Exp_10_working.osexp,C:\Users\russe\Dropbox,no,mono,no,32,no,#ffffff,no,I confirm that my participation has been explained and consent to taking part in the experiment,NA,4,yes,800,nh,droid,42,15,11,C:/Users/russe/Dropbox/Exp_10/New folder/subject-6.csv,droid,Jazzy James,3.1.7,0,11,NA,1,NA,1,1,NA,11,402,NA,1159,NA,662,770,NA,402,2,legacy,Female,1024,2,48000,-16,experiment,6,even,droid,68708,NA,NA,111384,111790,81021,82844,NA,111386,91236,NA,NA,NA,NA,2370,NA,NA,111790,NA,82182,90466,NA,111386,Runtime for Android template,37,17644,43,0.8,no,1280,-0.13519608
86.36363636,86.36363636,20,414.4318182,414.4318182,#000000,no,1,droid,legacy,legacy,0,I confirm that my participation has been explained and consent to taking part in the experiment,relative,1,undefined,undefined,1,0,1,0,59,59,0,0,0,59,0,0,0,0,0,0,NA,0,59,0,0,0,NA,59,937,468,04/09/2018 10:37,A template containing a practice and an experimental phase,96,no,800,1280,15.72330189,yes,Exp_10_working.osexp,C:\Users\russe\Dropbox,no,mono,no,32,no,#ffffff,no,I confirm that my participation has been explained and consent to taking part in the experiment,NA,1,yes,800,hl,droid,43,15,17,C:/Users/russe/Dropbox/Exp_10/New folder/subject-6.csv,droid,Jazzy James,3.1.7,0,17,NA,1,NA,1,1,NA,17,591,NA,1159,NA,662,770,NA,591,2,legacy,Female,1024,2,48000,-16,experiment,6,even,droid,68708,NA,NA,111859,112454,81021,82844,NA,111861,91236,NA,NA,NA,NA,2370,NA,NA,112454,NA,82182,90466,NA,111861,Runtime for Android template,38,18235,44,0.07692,no,1280,1.10813891
86.66666667,86.66666667,20,412.6444444,412.6444444,#000000,no,1,droid,legacy,legacy,0,I confirm that my participation has been explained and consent to taking part in the experiment,relative,1,undefined,undefined,1,0,1,0,60,60,0,0,0,60,0,0,0,0,0,0,NA,0,60,0,0,0,NA,60,701,507,04/09/2018 10:37,A template containing a practice and an experimental phase,96,no,800,1280,15.72330189,yes,Exp_10_working.osexp,C:\Users\russe\Dropbox,no,mono,no,32,no,#ffffff,no,I confirm that my participation has been explained and consent to taking part in the experiment,NA,1,yes,800,lk,droid,44,15,16,C:/Users/russe/Dropbox/Exp_10/New folder/subject-6.csv,droid,Jazzy James,3.1.7,0,16,NA,1,NA,1,1,NA,16,334,NA,1159,NA,662,770,NA,334,2,legacy,Female,1024,2,48000,-16,experiment,6,even,droid,68708,NA,NA,112509,112846,81021,82844,NA,112510,91236,NA,NA,NA,NA,2370,NA,NA,112846,NA,82182,90466,NA,112510,Runtime for Android template,39,18569,45,0.25,no,1280,-0.582533536
86.95652174,86.95652174,20,410.826087,410.826087,#000000,no,1,droid,legacy,legacy,0,I confirm that my participation has been explained and consent to taking part in the experiment,relative,1,undefined,undefined,1,0,1,0,61,61,0,0,0,61,0,0,0,0,0,0,NA,0,61,0,0,0,NA,61,742,503,04/09/2018 10:37,A template containing a practice and an experimental phase,96,no,800,1280,15.72330189,yes,Exp_10_working.osexp,C:\Users\russe\Dropbox,no,mono,no,32,no,#ffffff,no,I confirm that my participation has been explained and consent to taking part in the experiment,NA,1,yes,800,kk,droid,45,15,16,C:/Users/russe/Dropbox/Exp_10/New folder/subject-6.csv,droid,Jazzy James,3.1.7,0,16,NA,1,NA,1,1,NA,16,329,NA,1159,NA,662,770,NA,329,2,legacy,Female,1024,2,48000,-16,experiment,6,even,droid,68708,NA,NA,112905,113238,81021,82844,NA,112906,91236,NA,NA,NA,NA,2370,NA,NA,113238,NA,82182,90466,NA,112907,Runtime for Android template,40,18898,46,0.125,no,1280,-0.615425996
87.23404255,87.23404255,20,410.8723404,410.8723404,#000000,no,1,droid,legacy,legacy,0,I confirm that my participation has been explained and consent to taking part in the experiment,relative,1,undefined,undefined,1,0,1,0,62,62,0,0,0,62,0,0,0,0,0,0,NA,0,62,0,0,0,NA,62,926,348,04/09/2018 10:37,A template containing a practice and an experimental phase,96,no,800,1280,15.72330189,yes,Exp_10_working.osexp,C:\Users\russe\Dropbox,no,mono,no,32,no,#ffffff,no,I confirm that my participation has been explained and consent to taking part in the experiment,NA,2,yes,800,kh,droid,46,15,11,C:/Users/russe/Dropbox/Exp_10/New folder/subject-6.csv,droid,Jazzy James,3.1.7,0,11,NA,1,NA,1,1,NA,11,413,NA,1159,NA,662,770,NA,413,2,legacy,Female,1024,2,48000,-16,experiment,6,even,droid,68708,NA,NA,113293,113710,81021,82844,NA,113295,91236,NA,NA,NA,NA,2370,NA,NA,113710,NA,82182,90466,NA,113295,Runtime for Android template,41,19311,47,0.25,no,1280,-0.062832668
87.5,87.5,20,412.2708333,412.2708333,#000000,no,1,droid,legacy,legacy,0,I confirm that my participation has been explained and consent to taking part in the experiment,relative,1,undefined,undefined,1,0,1,0,63,63,0,0,0,63,0,0,0,0,0,0,NA,0,63,0,0,0,NA,63,730,9,04/09/2018 10:37,A template containing a practice and an experimental phase,96,no,800,1280,15.72330189,yes,Exp_10_working.osexp,C:\Users\russe\Dropbox,no,mono,no,32,no,#ffffff,no,I confirm that my participation has been explained and consent to taking part in the experiment,NA,1,yes,800,hd,droid,47,15,4,C:/Users/russe/Dropbox/Exp_10/New folder/subject-6.csv,droid,Jazzy James,3.1.7,0,4,NA,1,NA,1,1,NA,4,478,NA,1159,NA,662,770,NA,478,2,legacy,Female,1024,2,48000,-16,experiment,6,even,droid,68708,NA,NA,113772,114254,81021,82844,NA,113773,91236,NA,NA,NA,NA,2370,NA,NA,114254,NA,82182,90466,NA,113774,Runtime for Android template,42,19789,48,0.07692,no,1280,0.364769313
87.75510204,87.75510204,20,413.5510204,413.5510204,#000000,no,1,droid,legacy,legacy,0,I confirm that my participation has been explained and consent to taking part in the experiment,relative,1,undefined,undefined,1,0,1,0,64,64,0,0,0,64,0,0,0,0,0,0,NA,0,64,0,0,0,NA,64,768,640,04/09/2018 10:37,A template containing a practice and an experimental phase,96,no,800,1280,15.72330189,yes,Exp_10_working.osexp,C:\Users\russe\Dropbox,no,mono,no,32,no,#ffffff,no,I confirm that my participation has been explained and consent to taking part in the experiment,NA,1,yes,800,do,droid,48,15,22,C:/Users/russe/Dropbox/Exp_10/New folder/subject-6.csv,droid,Jazzy James,3.1.7,0,22,NA,1,NA,1,1,NA,22,475,NA,1159,NA,662,770,NA,475,2,legacy,Female,1024,2,48000,-16,experiment,6,even,droid,68708,NA,NA,114320,114798,81021,82844,NA,114321,91236,NA,NA,NA,NA,2370,NA,NA,114798,NA,82182,90466,NA,114321,Runtime for Android template,43,20264,49,0.33333,no,1280,0.345033837
86,86,20,411.84,411.84,#000000,no,1,droid,legacy,legacy,0,I confirm that my participation has been explained and consent to taking part in the experiment,relative,0,undefined,undefined,0,0,1,0,65,65,0,0,0,65,0,0,0,0,0,0,NA,0,65,0,0,0,NA,65,590,538,04/09/2018 10:37,A template containing a practice and an experimental phase,96,no,800,1280,15.72330189,yes,Exp_10_working.osexp,C:\Users\russe\Dropbox,no,mono,no,32,no,#ffffff,no,I confirm that my participation has been explained and consent to taking part in the experiment,NA,1,yes,800,on,droid,49,15,21,C:/Users/russe/Dropbox/Exp_10/New folder/subject-6.csv,droid,Jazzy James,3.1.7,0,15,NA,1,NA,1,1,NA,15,328,NA,1159,NA,662,770,NA,328,2,legacy,Female,1024,2,48000,-16,experiment,6,even,droid,68708,NA,NA,114858,115190,81021,82844,NA,114860,91236,NA,NA,NA,NA,2370,NA,NA,115190,NA,82182,90466,NA,114860,Runtime for Android template,43,20592,50,0.0625,no,1280,-0.622004488
86.2745098,86.2745098,20,410.5686275,410.5686275,#000000,no,1,droid,legacy,legacy,0,I confirm that my participation has been explained and consent to taking part in the experiment,relative,1,undefined,undefined,1,0,1,0,66,66,0,0,0,66,0,0,0,0,0,0,NA,0,66,0,0,0,NA,66,755,515,04/09/2018 10:37,A template containing a practice and an experimental phase,96,no,800,1280,15.72330189,yes,Exp_10_working.osexp,C:\Users\russe\Dropbox,no,mono,no,32,no,#ffffff,no,I confirm that my participation has been explained and consent to taking part in the experiment,NA,1,yes,800,nk,droid,50,15,16,C:/Users/russe/Dropbox/Exp_10/New folder/subject-6.csv,droid,Jazzy James,3.1.7,0,16,NA,1,NA,1,1,NA,16,347,NA,1159,NA,662,770,NA,347,2,legacy,Female,1024,2,48000,-16,experiment,6,even,droid,68708,NA,NA,115271,115622,81021,82844,NA,115273,91236,NA,NA,NA,NA,2370,NA,NA,115622,NA,82182,90466,NA,115273,Runtime for Android template,44,20939,51,0.2,no,1280,-0.49701314
86.53846154,86.53846154,20,410.6153846,410.6153846,#000000,no,1,droid,legacy,legacy,0,I confirm that my participation has been explained and consent to taking part in the experiment,relative,1,undefined,undefined,1,0,1,0,67,67,0,0,0,67,0,0,0,0,0,0,NA,0,67,0,0,0,NA,67,394,293,04/09/2018 10:37,A template containing a practice and an experimental phase,96,no,800,1280,15.72330189,yes,Exp_10_working.osexp,C:\Users\russe\Dropbox,no,mono,no,32,no,#ffffff,no,I confirm that my participation has been explained and consent to taking part in the experiment,NA,1,yes,800,ke,droid,51,15,8,C:/Users/russe/Dropbox/Exp_10/New folder/subject-6.csv,droid,Jazzy James,3.1.7,0,8,NA,1,NA,1,1,NA,8,413,NA,1159,NA,662,770,NA,413,2,legacy,Female,1024,2,48000,-16,experiment,6,even,droid,68708,NA,NA,115677,116094,81021,82844,NA,115679,91236,NA,NA,NA,NA,2370,NA,NA,116095,NA,82182,90466,NA,115679,Runtime for Android template,45,21352,52,0.125,no,1280,-0.062832668
84.90566038,84.90566038,20,410.2641509,410.2641509,#000000,no,1,droid,legacy,legacy,0,I confirm that my participation has been explained and consent to taking part in the experiment,relative,0,undefined,undefined,0,0,1,0,68,68,0,0,0,68,0,0,0,0,0,0,NA,0,68,0,0,0,NA,68,707,595,04/09/2018 10:37,A template containing a practice and an experimental phase,96,no,800,1280,15.72330189,yes,Exp_10_working.osexp,C:\Users\russe\Dropbox,no,mono,no,32,no,#ffffff,no,I confirm that my participation has been explained and consent to taking part in the experiment,NA,1,yes,800,eo,droid,52,15,22,C:/Users/russe/Dropbox/Exp_10/New folder/subject-6.csv,droid,Jazzy James,3.1.7,0,16,NA,1,NA,1,1,NA,16,392,NA,1159,NA,662,770,NA,392,2,legacy,Female,1024,2,48000,-16,experiment,6,even,droid,68708,NA,NA,116170,116566,81021,82844,NA,116171,91236,NA,NA,NA,NA,2370,NA,NA,116566,NA,82182,90466,NA,116172,Runtime for Android template,45,21744,53,0.08333,no,1280,-0.200981
85.18518519,85.18518519,20,416.5925926,416.5925926,#000000,no,1,droid,legacy,legacy,0,I confirm that my participation has been explained and consent to taking part in the experiment,relative,1,undefined,undefined,1,0,1,0,69,69,0,0,0,69,0,0,0,0,0,0,NA,0,69,0,0,0,NA,69,378,76,04/09/2018 10:37,A template containing a practice and an experimental phase,96,no,800,1280,15.72330189,yes,Exp_10_working.osexp,C:\Users\russe\Dropbox,no,mono,no,32,no,#ffffff,no,I confirm that my participation has been explained and consent to taking part in the experiment,NA,4,yes,800,oa,droid,53,15,2,C:/Users/russe/Dropbox/Exp_10/New folder/subject-6.csv,droid,Jazzy James,3.1.7,0,2,NA,1,NA,1,1,NA,2,752,NA,1159,NA,662,770,NA,752,2,legacy,Female,1024,2,48000,-16,experiment,6,even,droid,68708,NA,NA,116626,117382,81021,82844,NA,116628,91236,NA,NA,NA,NA,2370,NA,NA,117382,NA,82182,90466,NA,116628,Runtime for Android template,46,22496,54,0.25,no,1280,2.167276124
85.45454545,85.45454545,20,415.5454545,415.5454545,#000000,no,1,droid,legacy,legacy,0,I confirm that my participation has been explained and consent to taking part in the experiment,relative,1,undefined,undefined,1,0,1,0,70,70,0,0,0,70,0,0,0,0,0,0,NA,0,70,0,0,0,NA,70,352,362,04/09/2018 10:37,A template containing a practice and an experimental phase,96,no,800,1280,15.72330189,yes,Exp_10_working.osexp,C:\Users\russe\Dropbox,no,mono,no,32,no,#ffffff,no,I confirm that my participation has been explained and consent to taking part in the experiment,NA,1,yes,800,ae,droid,54,15,8,C:/Users/russe/Dropbox/Exp_10/New folder/subject-6.csv,droid,Jazzy James,3.1.7,0,8,NA,1,NA,1,1,NA,8,359,NA,1159,NA,662,770,NA,359,2,legacy,Female,1024,2,48000,-16,experiment,6,even,droid,68708,NA,NA,117443,117806,81021,82844,NA,117445,91236,NA,NA,NA,NA,2370,NA,NA,117806,NA,82182,90466,NA,117445,Runtime for Android template,47,22855,55,0.16667,no,1280,-0.418071236
85.71428571,85.71428571,20,421.0357143,421.0357143,#000000,no,1,droid,legacy,legacy,0,I confirm that my participation has been explained and consent to taking part in the experiment,relative,1,undefined,undefined,1,0,1,0,71,71,0,0,0,71,0,0,0,0,0,0,NA,0,71,0,0,0,NA,71,222,643,04/09/2018 10:37,A template containing a practice and an experimental phase,96,no,800,1280,15.72330189,yes,Exp_10_working.osexp,C:\Users\russe\Dropbox,no,mono,no,32,no,#ffffff,no,I confirm that my participation has been explained and consent to taking part in the experiment,NA,1,yes,800,em,droid,55,15,20,C:/Users/russe/Dropbox/Exp_10/New folder/subject-6.csv,droid,Jazzy James,3.1.7,0,20,NA,1,NA,1,1,NA,20,723,NA,1159,NA,662,770,NA,723,2,legacy,Female,1024,2,48000,-16,experiment,6,even,droid,68708,NA,NA,117863,118590,81021,82844,NA,117865,91236,NA,NA,NA,NA,2370,NA,NA,118590,NA,82182,90466,NA,117865,Runtime for Android template,48,23578,56,0.08333,no,1280,1.976499855
85.96491228,85.96491228,20,423.9649123,423.9649123,#000000,no,1,droid,legacy,legacy,0,I confirm that my participation has been explained and consent to taking part in the experiment,relative,1,undefined,undefined,1,0,1,0,72,72,0,0,0,72,0,0,0,0,0,0,NA,0,72,0,0,0,NA,72,642,702,04/09/2018 10:37,A template containing a practice and an experimental phase,96,no,800,1280,15.72330189,yes,Exp_10_working.osexp,C:\Users\russe\Dropbox,no,mono,no,32,no,#ffffff,no,I confirm that my participation has been explained and consent to taking part in the experiment,NA,2,yes,800,mo,droid,56,15,22,C:/Users/russe/Dropbox/Exp_10/New folder/subject-6.csv,droid,Jazzy James,3.1.7,0,22,NA,1,NA,1,1,NA,22,588,NA,1159,NA,662,770,NA,588,2,legacy,Female,1024,2,48000,-16,experiment,6,even,droid,68708,NA,NA,118694,119286,81021,82844,NA,118696,91236,NA,NA,NA,NA,2370,NA,NA,119287,NA,82182,90466,NA,118696,Runtime for Android template,49,24166,57,0.22222,no,1280,1.088403434
86.20689655,86.20689655,20,422.4827586,422.4827586,#000000,no,1,droid,legacy,legacy,0,I confirm that my participation has been explained and consent to taking part in the experiment,relative,1,undefined,undefined,1,0,1,0,73,73,0,0,0,73,0,0,0,0,0,0,NA,0,73,0,0,0,NA,73,689,652,04/09/2018 10:37,A template containing a practice and an experimental phase,96,no,800,1280,15.72330189,yes,Exp_10_working.osexp,C:\Users\russe\Dropbox,no,mono,no,32,no,#ffffff,no,I confirm that my participation has been explained and consent to taking part in the experiment,NA,1,yes,800,oo,droid,57,15,22,C:/Users/russe/Dropbox/Exp_10/New folder/subject-6.csv,droid,Jazzy James,3.1.7,0,22,NA,1,NA,1,1,NA,22,338,NA,1159,NA,662,770,NA,338,2,legacy,Female,1024,2,48000,-16,experiment,6,even,droid,68708,NA,NA,119344,119687,81021,82844,NA,119346,91236,NA,NA,NA,NA,2370,NA,NA,119687,NA,82182,90466,NA,119346,Runtime for Android template,50,24504,58,0.0625,no,1280,-0.556219568
86.44067797,86.44067797,20,424.0508475,424.0508475,#000000,no,1,droid,legacy,legacy,0,I confirm that my participation has been explained and consent to taking part in the experiment,relative,1,undefined,undefined,1,0,1,0,74,74,0,0,0,74,0,0,0,0,0,0,NA,0,74,0,0,0,NA,74,893,625,04/09/2018 10:37,A template containing a practice and an experimental phase,96,no,800,1280,15.72330189,yes,Exp_10_working.osexp,C:\Users\russe\Dropbox,no,mono,no,32,no,#ffffff,no,I confirm that my participation has been explained and consent to taking part in the experiment,NA,1,yes,800,op,droid,58,15,23,C:/Users/russe/Dropbox/Exp_10/New folder/subject-6.csv,droid,Jazzy James,3.1.7,0,23,NA,1,NA,1,1,NA,23,515,NA,1159,NA,662,770,NA,515,2,legacy,Female,1024,2,48000,-16,experiment,6,even,droid,68708,NA,NA,119760,120278,81021,82844,NA,119761,91236,NA,NA,NA,NA,2370,NA,NA,120278,NA,82182,90466,NA,119761,Runtime for Android template,51,25019,59,0.0625,no,1280,0.608173517
86.66666667,86.66666667,20,422.6166667,422.6166667,#000000,no,1,droid,legacy,legacy,0,I confirm that my participation has been explained and consent to taking part in the experiment,relative,1,undefined,undefined,1,0,1,0,75,75,0,0,0,75,0,0,0,0,0,0,NA,0,75,0,0,0,NA,75,652,301,04/09/2018 10:37,A template containing a practice and an experimental phase,96,no,800,1280,15.72330189,yes,Exp_10_working.osexp,C:\Users\russe\Dropbox,no,mono,no,32,no,#ffffff,no,I confirm that my participation has been explained and consent to taking part in the experiment,NA,1,yes,800,pg,droid,59,15,10,C:/Users/russe/Dropbox/Exp_10/New folder/subject-6.csv,droid,Jazzy James,3.1.7,0,10,NA,1,NA,1,1,NA,10,338,NA,1159,NA,662,770,NA,338,2,legacy,Female,1024,2,48000,-16,experiment,6,even,droid,68708,NA,NA,120352,120694,81021,82844,NA,120354,91236,NA,NA,NA,NA,2370,NA,NA,120694,NA,82182,90466,NA,120354,Runtime for Android template,52,25357,60,0.2,no,1280,-0.556219568
86.8852459,86.8852459,20,423.4262295,423.4262295,#000000,no,1,droid,legacy,legacy,0,I confirm that my participation has been explained and consent to taking part in the experiment,relative,1,undefined,undefined,1,0,1,0,76,76,0,0,0,76,0,0,0,0,0,0,NA,0,76,0,0,0,NA,76,286,671,04/09/2018 10:37,A template containing a practice and an experimental phase,96,no,800,1280,15.72330189,yes,Exp_10_working.osexp,C:\Users\russe\Dropbox,no,mono,no,32,no,#ffffff,no,I confirm that my participation has been explained and consent to taking part in the experiment,NA,1,yes,800,gm,droid,60,15,20,C:/Users/russe/Dropbox/Exp_10/New folder/subject-6.csv,droid,Jazzy James,3.1.7,0,20,NA,1,NA,1,1,NA,20,472,NA,1159,NA,662,770,NA,472,2,legacy,Female,1024,2,48000,-16,experiment,6,even,droid,68708,NA,NA,120762,121238,81021,82844,NA,120763,91236,NA,NA,NA,NA,2370,NA,NA,121238,NA,82182,90466,NA,120764,Runtime for Android template,53,25829,61,0.2,no,1280,0.325298361
87.09677419,87.09677419,20,423.2258065,423.2258065,#000000,no,1,droid,legacy,legacy,0,I confirm that my participation has been explained and consent to taking part in the experiment,relative,1,undefined,undefined,1,0,1,0,77,77,0,0,0,77,0,0,0,0,0,0,NA,0,77,0,0,0,NA,77,236,271,04/09/2018 10:37,A template containing a practice and an experimental phase,96,no,800,1280,15.72330189,yes,Exp_10_working.osexp,C:\Users\russe\Dropbox,no,mono,no,32,no,#ffffff,no,I confirm that my participation has been explained and consent to taking part in the experiment,NA,2,yes,800,me,droid,61,15,8,C:/Users/russe/Dropbox/Exp_10/New folder/subject-6.csv,droid,Jazzy James,3.1.7,0,8,NA,1,NA,1,1,NA,8,411,NA,1159,NA,662,770,NA,411,2,legacy,Female,1024,2,48000,-16,experiment,6,even,droid,68708,NA,NA,121303,121718,81021,82844,NA,121305,91236,NA,NA,NA,NA,2370,NA,NA,121718,NA,82182,90466,NA,121305,Runtime for Android template,54,26240,62,0.22222,no,1280,-0.075989652
85.71428571,85.71428571,20,423.2063492,423.2063492,#000000,no,1,droid,legacy,legacy,0,I confirm that my participation has been explained and consent to taking part in the experiment,relative,0,undefined,undefined,0,0,1,0,78,78,0,0,0,78,0,0,0,0,0,0,NA,0,78,0,0,0,NA,78,633,154,04/09/2018 10:37,A template containing a practice and an experimental phase,96,no,800,1280,15.72330189,yes,Exp_10_working.osexp,C:\Users\russe\Dropbox,no,mono,no,32,no,#ffffff,no,I confirm that my participation has been explained and consent to taking part in the experiment,NA,1,yes,800,ed,droid,62,15,4,C:/Users/russe/Dropbox/Exp_10/New folder/subject-6.csv,droid,Jazzy James,3.1.7,0,3,NA,1,NA,1,1,NA,3,422,NA,1159,NA,662,770,NA,422,2,legacy,Female,1024,2,48000,-16,experiment,6,even,droid,68708,NA,NA,121789,122213,81021,82844,NA,121790,91236,NA,NA,NA,NA,2370,NA,NA,122213,NA,82182,90466,NA,121790,Runtime for Android template,54,26662,63,0.83333,no,1280,-0.003626239
85.9375,85.9375,20,423.03125,423.03125,#000000,no,1,droid,legacy,legacy,0,I confirm that my participation has been explained and consent to taking part in the experiment,relative,1,undefined,undefined,1,0,1,0,79,79,0,0,0,79,0,0,0,0,0,0,NA,0,79,0,0,0,NA,79,371,136,04/09/2018 10:37,A template containing a practice and an experimental phase,96,no,800,1280,15.72330189,yes,Exp_10_working.osexp,C:\Users\russe\Dropbox,no,mono,no,32,no,#ffffff,no,I confirm that my participation has been explained and consent to taking part in the experiment,NA,1,yes,800,da,droid,63,15,2,C:/Users/russe/Dropbox/Exp_10/New folder/subject-6.csv,droid,Jazzy James,3.1.7,0,2,NA,1,NA,1,1,NA,2,412,NA,1159,NA,662,770,NA,412,2,legacy,Female,1024,2,48000,-16,experiment,6,even,droid,68708,NA,NA,122278,122694,81021,82844,NA,122280,91236,NA,NA,NA,NA,2370,NA,NA,122694,NA,82182,90466,NA,122280,Runtime for Android template,55,27074,64,0.33333,no,1280,-0.06941116
86.15384615,86.15384615,20,422.3230769,422.3230769,#000000,no,1,droid,legacy,legacy,0,I confirm that my participation has been explained and consent to taking part in the experiment,relative,1,undefined,undefined,1,0,1,0,80,80,0,0,0,80,0,0,0,0,0,0,NA,0,80,0,0,0,NA,80,550,97,04/09/2018 10:37,A template containing a practice and an experimental phase,96,no,800,1280,15.72330189,yes,Exp_10_working.osexp,C:\Users\russe\Dropbox,no,mono,no,32,no,#ffffff,no,I confirm that my participation has been explained and consent to taking part in the experiment,NA,2,yes,800,ab,droid,64,15,3,C:/Users/russe/Dropbox/Exp_10/New folder/subject-6.csv,droid,Jazzy James,3.1.7,0,3,NA,1,NA,1,1,NA,3,377,NA,1159,NA,662,770,NA,377,2,legacy,Female,1024,2,48000,-16,experiment,6,even,droid,68708,NA,NA,122753,123134,81021,82844,NA,122755,91236,NA,NA,NA,NA,2370,NA,NA,123134,NA,82182,90466,NA,122755,Runtime for Android template,56,27451,65,0.33333,no,1280,-0.29965838
86.36363636,86.36363636,20,422.1969697,422.1969697,#000000,no,1,droid,legacy,legacy,0,I confirm that my participation has been explained and consent to taking part in the experiment,relative,1,undefined,undefined,1,0,1,0,81,81,0,0,0,81,0,0,0,0,0,0,NA,0,81,0,0,0,NA,81,1043,609,04/09/2018 10:37,A template containing a practice and an experimental phase,96,no,800,1280,15.72330189,yes,Exp_10_working.osexp,C:\Users\russe\Dropbox,no,mono,no,32,no,#ffffff,no,I confirm that my participation has been explained and consent to taking part in the experiment,NA,1,yes,800,bp,droid,65,15,23,C:/Users/russe/Dropbox/Exp_10/New folder/subject-6.csv,droid,Jazzy James,3.1.7,0,23,NA,1,NA,1,1,NA,23,414,NA,1159,NA,662,770,NA,414,2,legacy,Female,1024,2,48000,-16,experiment,6,even,droid,68708,NA,NA,123196,123614,81021,82844,NA,123198,91236,NA,NA,NA,NA,2370,NA,NA,123614,NA,82182,90466,NA,123198,Runtime for Android template,57,27865,66,0.125,no,1280,-0.056254176
86.56716418,86.56716418,20,422.4626866,422.4626866,#000000,no,1,droid,legacy,legacy,0,I confirm that my participation has been explained and consent to taking part in the experiment,relative,1,undefined,undefined,1,0,1,0,82,82,0,0,0,82,0,0,0,0,0,0,NA,0,82,0,0,0,NA,82,306,230,04/09/2018 10:37,A template containing a practice and an experimental phase,96,no,800,1280,15.72330189,yes,Exp_10_working.osexp,C:\Users\russe\Dropbox,no,mono,no,32,no,#ffffff,no,I confirm that my participation has been explained and consent to taking part in the experiment,NA,1,yes,800,pe,droid,66,15,8,C:/Users/russe/Dropbox/Exp_10/New folder/subject-6.csv,droid,Jazzy James,3.1.7,0,8,NA,1,NA,1,1,NA,8,440,NA,1159,NA,662,770,NA,440,2,legacy,Female,1024,2,48000,-16,experiment,6,even,droid,68708,NA,NA,123682,124126,81021,82844,NA,123683,91236,NA,NA,NA,NA,2370,NA,NA,124126,NA,82182,90466,NA,123684,Runtime for Android template,58,28305,67,0.2,no,1280,0.114786617
86.76470588,86.76470588,20,422.3382353,422.3382353,#000000,no,1,droid,legacy,legacy,0,I confirm that my participation has been explained and consent to taking part in the experiment,relative,1,undefined,undefined,1,0,1,0,83,83,0,0,0,83,0,0,0,0,0,0,NA,0,83,0,0,0,NA,83,285,335,04/09/2018 10:37,A template containing a practice and an experimental phase,96,no,800,1280,15.72330189,yes,Exp_10_working.osexp,C:\Users\russe\Dropbox,no,mono,no,32,no,#ffffff,no,I confirm that my participation has been explained and consent to taking part in the experiment,NA,2,yes,800,ee,droid,67,15,8,C:/Users/russe/Dropbox/Exp_10/New folder/subject-6.csv,droid,Jazzy James,3.1.7,0,8,NA,1,NA,1,1,NA,8,414,NA,1159,NA,662,770,NA,414,2,legacy,Female,1024,2,48000,-16,experiment,6,even,droid,68708,NA,NA,124188,124606,81021,82844,NA,124190,91236,NA,NA,NA,NA,2370,NA,NA,124606,NA,82182,90466,NA,124190,Runtime for Android template,59,28719,68,0.16667,no,1280,-0.056254176
86.95652174,86.95652174,20,421.9275362,421.9275362,#000000,no,1,droid,legacy,legacy,0,I confirm that my participation has been explained and consent to taking part in the experiment,relative,1,undefined,undefined,1,0,1,0,84,84,0,0,0,84,0,0,0,0,0,0,NA,0,84,0,0,0,NA,84,577,22,04/09/2018 10:37,A template containing a practice and an experimental phase,96,no,800,1280,15.72330189,yes,Exp_10_working.osexp,C:\Users\russe\Dropbox,no,mono,no,32,no,#ffffff,no,I confirm that my participation has been explained and consent to taking part in the experiment,NA,1,yes,800,eb,droid,68,15,3,C:/Users/russe/Dropbox/Exp_10/New folder/subject-6.csv,droid,Jazzy James,3.1.7,0,3,NA,1,NA,1,1,NA,3,394,NA,1159,NA,662,770,NA,394,2,legacy,Female,1024,2,48000,-16,experiment,6,even,droid,68708,NA,NA,124704,125102,81021,82844,NA,124706,91236,NA,NA,NA,NA,2370,NA,NA,125102,NA,82182,90466,NA,124706,Runtime for Android template,60,29113,69,0.08333,no,1280,-0.187824016
87.14285714,87.14285714,20,421.0571429,421.0571429,#000000,no,1,droid,legacy,legacy,0,I confirm that my participation has been explained and consent to taking part in the experiment,relative,1,undefined,undefined,1,0,1,0,85,85,0,0,0,85,0,0,0,0,0,0,NA,0,85,0,0,0,NA,85,314,336,04/09/2018 10:37,A template containing a practice and an experimental phase,96,no,800,1280,15.72330189,yes,Exp_10_working.osexp,C:\Users\russe\Dropbox,no,mono,no,32,no,#ffffff,no,I confirm that my participation has been explained and consent to taking part in the experiment,NA,1,yes,800,be,droid,69,15,8,C:/Users/russe/Dropbox/Exp_10/New folder/subject-6.csv,droid,Jazzy James,3.1.7,0,8,NA,1,NA,1,1,NA,8,361,NA,1159,NA,662,770,NA,361,2,legacy,Female,1024,2,48000,-16,experiment,6,even,droid,68708,NA,NA,125161,125526,81021,82844,NA,125163,91236,NA,NA,NA,NA,2370,NA,NA,125526,NA,82182,90466,NA,125163,Runtime for Android template,61,29474,70,0.125,no,1280,-0.404914252
87.32394366,87.32394366,20,420.7464789,420.7464789,#000000,no,1,droid,legacy,legacy,0,I confirm that my participation has been explained and consent to taking part in the experiment,relative,1,undefined,undefined,1,0,1,0,86,86,0,0,0,86,0,0,0,0,0,0,NA,0,86,0,0,0,NA,86,514,107,04/09/2018 10:37,A template containing a practice and an experimental phase,96,no,800,1280,15.72330189,yes,Exp_10_working.osexp,C:\Users\russe\Dropbox,no,mono,no,32,no,#ffffff,no,I confirm that my participation has been explained and consent to taking part in the experiment,NA,2,yes,800,bb,droid,70,15,3,C:/Users/russe/Dropbox/Exp_10/New folder/subject-6.csv,droid,Jazzy James,3.1.7,0,3,NA,1,NA,1,1,NA,3,399,NA,1159,NA,662,770,NA,399,2,legacy,Female,1024,2,48000,-16,experiment,6,even,droid,68708,NA,NA,125587,125990,81021,82844,NA,125589,91236,NA,NA,NA,NA,2370,NA,NA,125990,NA,82182,90466,NA,125589,Runtime for Android template,62,29873,71,0.25,no,1280,-0.154931556
87.5,87.5,20,421.1805556,421.1805556,#000000,no,1,droid,legacy,legacy,0,I confirm that my participation has been explained and consent to taking part in the experiment,relative,1,undefined,undefined,1,0,1,0,87,87,0,0,0,87,0,0,0,0,0,0,NA,0,87,0,0,0,NA,87,764,126,04/09/2018 10:37,A template containing a practice and an experimental phase,96,no,800,1280,15.72330189,yes,Exp_10_working.osexp,C:\Users\russe\Dropbox,no,mono,no,32,no,#ffffff,no,I confirm that my participation has been explained and consent to taking part in the experiment,NA,1,yes,800,bc,droid,71,15,4,C:/Users/russe/Dropbox/Exp_10/New folder/subject-6.csv,droid,Jazzy James,3.1.7,0,4,NA,1,NA,1,1,NA,4,452,NA,1159,NA,662,770,NA,452,2,legacy,Female,1024,2,48000,-16,experiment,6,even,droid,68708,NA,NA,126062,126518,81021,82844,NA,126064,91236,NA,NA,NA,NA,2370,NA,NA,126518,NA,82182,90466,NA,126064,Runtime for Android template,63,30325,72,0.125,no,1280,0.193728521
86.30136986,86.30136986,20,421.5890411,421.5890411,#000000,no,1,droid,legacy,legacy,0,I confirm that my participation has been explained and consent to taking part in the experiment,relative,0,undefined,undefined,0,0,1,0,88,88,0,0,0,88,0,0,0,0,0,0,NA,0,88,0,0,0,NA,88,780,546,04/09/2018 10:37,A template containing a practice and an experimental phase,96,no,800,1280,15.72330189,yes,Exp_10_working.osexp,C:\Users\russe\Dropbox,no,mono,no,32,no,#ffffff,no,I confirm that my participation has been explained and consent to taking part in the experiment,NA,3,yes,800,co,droid,72,15,22,C:/Users/russe/Dropbox/Exp_10/New folder/subject-6.csv,droid,Jazzy James,3.1.7,0,16,NA,1,NA,1,1,NA,16,451,NA,1159,NA,662,770,NA,451,2,legacy,Female,1024,2,48000,-16,experiment,6,even,droid,68708,NA,NA,126591,127046,81021,82844,NA,126593,91236,NA,NA,NA,NA,2370,NA,NA,127046,NA,82182,90466,NA,126593,Runtime for Android template,63,30776,73,0.3,no,1280,0.187150029
86.48648649,86.48648649,20,421.8513514,421.8513514,#000000,no,1,droid,legacy,legacy,0,I confirm that my participation has been explained and consent to taking part in the experiment,relative,1,undefined,undefined,1,0,1,0,89,89,0,0,0,89,0,0,0,0,0,0,NA,0,89,0,0,0,NA,89,328,160,04/09/2018 10:37,A template containing a practice and an experimental phase,96,no,800,1280,15.72330189,yes,Exp_10_working.osexp,C:\Users\russe\Dropbox,no,mono,no,32,no,#ffffff,no,I confirm that my participation has been explained and consent to taking part in the experiment,NA,4,yes,800,oa,droid,73,15,2,C:/Users/russe/Dropbox/Exp_10/New folder/subject-6.csv,droid,Jazzy James,3.1.7,0,2,NA,1,NA,1,1,NA,2,441,NA,1159,NA,662,770,NA,441,2,legacy,Female,1024,2,48000,-16,experiment,6,even,droid,68708,NA,NA,127113,127558,81021,82844,NA,127115,91236,NA,NA,NA,NA,2370,NA,NA,127558,NA,82182,90466,NA,127115,Runtime for Android template,64,31217,74,0.25,no,1280,0.121365109
85.33333333,85.33333333,20,422.36,422.36,#000000,no,1,droid,legacy,legacy,0,I confirm that my participation has been explained and consent to taking part in the experiment,relative,0,undefined,undefined,0,0,1,0,90,90,0,0,0,90,0,0,0,0,0,0,NA,0,90,0,0,0,NA,90,878,665,04/09/2018 10:37,A template containing a practice and an experimental phase,96,no,800,1280,15.72330189,yes,Exp_10_working.osexp,C:\Users\russe\Dropbox,no,mono,no,32,no,#ffffff,no,I confirm that my participation has been explained and consent to taking part in the experiment,NA,2,yes,800,ao,droid,74,15,22,C:/Users/russe/Dropbox/Exp_10/New folder/subject-6.csv,droid,Jazzy James,3.1.7,0,23,NA,1,NA,1,1,NA,23,460,NA,1159,NA,662,770,NA,460,2,legacy,Female,1024,2,48000,-16,experiment,6,even,droid,68708,NA,NA,127622,128086,81021,82844,NA,127624,91236,NA,NA,NA,NA,2370,NA,NA,128086,NA,82182,90466,NA,127624,Runtime for Android template,64,31677,75,0.33333,no,1280,0.246356457
85.52631579,85.52631579,20,422.0657895,422.0657895,#000000,no,1,droid,legacy,legacy,0,I confirm that my participation has been explained and consent to taking part in the experiment,relative,1,undefined,undefined,1,0,1,0,91,91,0,0,0,91,0,0,0,0,0,0,NA,0,91,0,0,0,NA,91,681,159,04/09/2018 10:37,A template containing a practice and an experimental phase,96,no,800,1280,15.72330189,yes,Exp_10_working.osexp,C:\Users\russe\Dropbox,no,mono,no,32,no,#ffffff,no,I confirm that my participation has been explained and consent to taking part in the experiment,NA,2,yes,800,oc,droid,75,15,4,C:/Users/russe/Dropbox/Exp_10/New folder/subject-6.csv,droid,Jazzy James,3.1.7,0,4,NA,1,NA,1,1,NA,4,400,NA,1159,NA,662,770,NA,400,2,legacy,Female,1024,2,48000,-16,experiment,6,even,droid,68708,NA,NA,128146,128550,81021,82844,NA,128148,91236,NA,NA,NA,NA,2370,NA,NA,128550,NA,82182,90466,NA,128148,Runtime for Android template,65,32077,76,0.125,no,1280,-0.148353064
85.71428571,85.71428571,20,421.2077922,421.2077922,#000000,no,1,droid,legacy,legacy,0,I confirm that my participation has been explained and consent to taking part in the experiment,relative,1,undefined,undefined,1,0,1,0,92,92,0,0,0,92,0,0,0,0,0,0,NA,0,92,0,0,0,NA,92,730,504,04/09/2018 10:37,A template containing a practice and an experimental phase,96,no,800,1280,15.72330189,yes,Exp_10_working.osexp,C:\Users\russe\Dropbox,no,mono,no,32,no,#ffffff,no,I confirm that my participation has been explained and consent to taking part in the experiment,NA,1,yes,800,ck,droid,76,15,16,C:/Users/russe/Dropbox/Exp_10/New folder/subject-6.csv,droid,Jazzy James,3.1.7,0,16,NA,1,NA,1,1,NA,16,356,NA,1159,NA,662,770,NA,356,2,legacy,Female,1024,2,48000,-16,experiment,6,even,droid,68708,NA,NA,128614,128973,81021,82844,NA,128616,91236,NA,NA,NA,NA,2370,NA,NA,128974,NA,82182,90466,NA,128616,Runtime for Android template,66,32433,77,0.1,no,1280,-0.437806712
85.8974359,85.8974359,20,420.5769231,420.5769231,#000000,no,1,droid,legacy,legacy,0,I confirm that my participation has been explained and consent to taking part in the experiment,relative,1,undefined,undefined,1,0,1,0,93,93,0,0,0,93,0,0,0,0,0,0,NA,0,93,0,0,0,NA,93,711,337,04/09/2018 10:37,A template containing a practice and an experimental phase,96,no,800,1280,15.72330189,yes,Exp_10_working.osexp,C:\Users\russe\Dropbox,no,mono,no,32,no,#ffffff,no,I confirm that my participation has been explained and consent to taking part in the experiment,NA,1,yes,800,kg,droid,77,15,10,C:/Users/russe/Dropbox/Exp_10/New folder/subject-6.csv,droid,Jazzy James,3.1.7,0,10,NA,1,NA,1,1,NA,10,372,NA,1159,NA,662,770,NA,372,2,legacy,Female,1024,2,48000,-16,experiment,6,even,droid,68708,NA,NA,129039,129414,81021,82844,NA,129040,91236,NA,NA,NA,NA,2370,NA,NA,129414,NA,82182,90466,NA,129040,Runtime for Android template,67,32805,78,0.125,no,1280,-0.33255084
86.07594937,86.07594937,20,419.8481013,419.8481013,#000000,no,1,droid,legacy,legacy,0,I confirm that my participation has been explained and consent to taking part in the experiment,relative,1,undefined,undefined,1,0,1,0,94,94,0,0,0,94,0,0,0,0,0,0,NA,0,94,0,0,0,NA,94,583,623,04/09/2018 10:37,A template containing a practice and an experimental phase,96,no,800,1280,15.72330189,yes,Exp_10_working.osexp,C:\Users\russe\Dropbox,no,mono,no,32,no,#ffffff,no,I confirm that my participation has been explained and consent to taking part in the experiment,NA,1,yes,800,gn,droid,78,15,21,C:/Users/russe/Dropbox/Exp_10/New folder/subject-6.csv,droid,Jazzy James,3.1.7,0,21,NA,1,NA,1,1,NA,21,363,NA,1159,NA,662,770,NA,363,2,legacy,Female,1024,2,48000,-16,experiment,6,even,droid,68708,NA,NA,129479,129846,81021,82844,NA,129481,91236,NA,NA,NA,NA,2370,NA,NA,129846,NA,82182,90466,NA,129481,Runtime for Android template,68,33168,79,0.2,no,1280,-0.391757268
86.25,86.25,20,420.2,420.2,#000000,no,1,droid,legacy,legacy,0,I confirm that my participation has been explained and consent to taking part in the experiment,relative,1,undefined,undefined,1,0,1,0,95,95,0,0,0,95,0,0,0,0,0,0,NA,0,95,0,0,0,NA,95,1002,363,04/09/2018 10:37,A template containing a practice and an experimental phase,96,no,800,1280,15.72330189,yes,Exp_10_working.osexp,C:\Users\russe\Dropbox,no,mono,no,32,no,#ffffff,no,I confirm that my participation has been explained and consent to taking part in the experiment,NA,4,yes,800,nh,droid,79,15,11,C:/Users/russe/Dropbox/Exp_10/New folder/subject-6.csv,droid,Jazzy James,3.1.7,0,11,NA,1,NA,1,1,NA,11,448,NA,1159,NA,662,770,NA,448,2,legacy,Female,1024,2,48000,-16,experiment,6,even,droid,68708,NA,NA,129922,130373,81021,82844,NA,129924,91236,NA,NA,NA,NA,2370,NA,NA,130373,NA,82182,90466,NA,129924,Runtime for Android template,69,33616,80,0.8,no,1280,0.167414553
86.41975309,86.41975309,20,419.7407407,419.7407407,#000000,no,1,droid,legacy,legacy,0,I confirm that my participation has been explained and consent to taking part in the experiment,relative,1,undefined,undefined,1,0,1,0,96,96,0,0,0,96,0,0,0,0,0,0,NA,0,96,0,0,0,NA,96,912,370,04/09/2018 10:37,A template containing a practice and an experimental phase,96,no,800,1280,15.72330189,yes,Exp_10_working.osexp,C:\Users\russe\Dropbox,no,mono,no,32,no,#ffffff,no,I confirm that my participation has been explained and consent to taking part in the experiment,NA,1,yes,800,hn,droid,80,15,11,C:/Users/russe/Dropbox/Exp_10/New folder/subject-6.csv,droid,Jazzy James,3.1.7,0,11,NA,1,NA,1,1,NA,11,383,NA,1159,NA,662,770,NA,383,2,legacy,Female,1024,2,48000,-16,experiment,6,even,droid,68708,NA,NA,130436,130822,81021,82844,NA,130437,91236,NA,NA,NA,NA,2370,NA,NA,130822,NA,82182,90466,NA,130437,Runtime for Android template,70,33999,81,0.07692,no,1280,-0.260187428
86.58536585,86.58536585,20,419.4390244,419.4390244,#000000,no,1,droid,legacy,legacy,0,I confirm that my participation has been explained and consent to taking part in the experiment,relative,1,undefined,undefined,1,0,1,0,97,97,0,0,0,97,0,0,0,0,0,0,NA,0,97,0,0,0,NA,97,560,647,04/09/2018 10:37,A template containing a practice and an experimental phase,96,no,800,1280,15.72330189,yes,Exp_10_working.osexp,C:\Users\russe\Dropbox,no,mono,no,32,no,#ffffff,no,I confirm that my participation has been explained and consent to taking part in the experiment,NA,4,yes,800,nh,droid,81,15,21,C:/Users/russe/Dropbox/Exp_10/New folder/subject-6.csv,droid,Jazzy James,3.1.7,0,21,NA,1,NA,1,1,NA,21,395,NA,1159,NA,662,770,NA,395,2,legacy,Female,1024,2,48000,-16,experiment,6,even,droid,68708,NA,NA,130888,131286,81021,82844,NA,130889,91236,NA,NA,NA,NA,2370,NA,NA,131286,NA,82182,90466,NA,130889,Runtime for Android template,71,34394,82,0.8,no,1280,-0.181245524
86.74698795,86.74698795,20,419.0843373,419.0843373,#000000,no,1,droid,legacy,legacy,0,I confirm that my participation has been explained and consent to taking part in the experiment,relative,1,undefined,undefined,1,0,1,0,98,98,0,0,0,98,0,0,0,0,0,0,NA,0,98,0,0,0,NA,98,952,661,04/09/2018 10:37,A template containing a practice and an experimental phase,96,no,800,1280,15.72330189,yes,Exp_10_working.osexp,C:\Users\russe\Dropbox,no,mono,no,32,no,#ffffff,no,I confirm that my participation has been explained and consent to taking part in the experiment,NA,1,yes,800,hp,droid,82,15,23,C:/Users/russe/Dropbox/Exp_10/New folder/subject-6.csv,droid,Jazzy James,3.1.7,0,23,NA,1,NA,1,1,NA,23,390,NA,1159,NA,662,770,NA,390,2,legacy,Female,1024,2,48000,-16,experiment,6,even,droid,68708,NA,NA,131348,131742,81021,82844,NA,131350,91236,NA,NA,NA,NA,2370,NA,NA,131742,NA,82182,90466,NA,131350,Runtime for Android template,72,34784,83,0.07692,no,1280,-0.214137984
86.9047619,86.9047619,20,419.297619,419.297619,#000000,no,1,droid,legacy,legacy,0,I confirm that my participation has been explained and consent to taking part in the experiment,relative,1,undefined,undefined,1,0,1,0,99,99,0,0,0,99,0,0,0,0,0,0,NA,0,99,0,0,0,NA,99,300,650,04/09/2018 10:37,A template containing a practice and an experimental phase,96,no,800,1280,15.72330189,yes,Exp_10_working.osexp,C:\Users\russe\Dropbox,no,mono,no,32,no,#ffffff,no,I confirm that my participation has been explained and consent to taking part in the experiment,NA,1,yes,800,pm,droid,83,15,20,C:/Users/russe/Dropbox/Exp_10/New folder/subject-6.csv,droid,Jazzy James,3.1.7,0,20,NA,1,NA,1,1,NA,20,437,NA,1159,NA,662,770,NA,437,2,legacy,Female,1024,2,48000,-16,experiment,6,even,droid,68708,NA,NA,131798,132239,81021,82844,NA,131799,91236,NA,NA,NA,NA,2370,NA,NA,132239,NA,82182,90466,NA,131799,Runtime for Android template,73,35221,84,0.2,no,1280,0.095051141
85.88235294,85.88235294,20,419.0470588,419.0470588,#000000,no,1,droid,legacy,legacy,0,I confirm that my participation has been explained and consent to taking part in the experiment,relative,0,undefined,undefined,0,0,1,0,100,100,0,0,0,100,0,0,0,0,0,0,NA,0,100,0,0,0,NA,100,1067,340,04/09/2018 10:37,A template containing a practice and an experimental phase,96,no,800,1280,15.72330189,yes,Exp_10_working.osexp,C:\Users\russe\Dropbox,no,mono,no,32,no,#ffffff,no,I confirm that my participation has been explained and consent to taking part in the experiment,NA,1,yes,800,mh,droid,84,15,11,C:/Users/russe/Dropbox/Exp_10/New folder/subject-6.csv,droid,Jazzy James,3.1.7,0,12,NA,1,NA,1,1,NA,12,398,NA,1159,NA,662,770,NA,398,2,legacy,Female,1024,2,48000,-16,experiment,6,even,droid,68708,NA,NA,132308,132710,81021,82844,NA,132310,91236,NA,NA,NA,NA,2370,NA,NA,132710,NA,82182,90466,NA,132310,Runtime for Android template,73,35619,85,0.11111,no,1280,-0.161510048
86.04651163,86.04651163,20,418.5930233,418.5930233,#000000,no,1,droid,legacy,legacy,0,I confirm that my participation has been explained and consent to taking part in the experiment,relative,1,undefined,undefined,1,0,1,0,101,101,0,0,0,101,0,0,0,0,0,0,NA,0,101,0,0,0,NA,101,438,569,04/09/2018 10:37,A template containing a practice and an experimental phase,96,no,800,1280,15.72330189,yes,Exp_10_working.osexp,C:\Users\russe\Dropbox,no,mono,no,32,no,#ffffff,no,I confirm that my participation has been explained and consent to taking part in the experiment,NA,2,yes,800,hj,droid,85,15,15,C:/Users/russe/Dropbox/Exp_10/New folder/subject-6.csv,droid,Jazzy James,3.1.7,0,15,NA,1,NA,1,1,NA,15,380,NA,1159,NA,662,770,NA,380,2,legacy,Female,1024,2,48000,-16,experiment,6,even,droid,68708,NA,NA,132798,133182,81021,82844,NA,132799,91236,NA,NA,NA,NA,2370,NA,NA,133182,NA,82182,90466,NA,132800,Runtime for Android template,74,35999,86,0.15385,no,1280,-0.279922904
86.20689655,86.20689655,20,418.8735632,418.8735632,#000000,no,1,droid,legacy,legacy,0,I confirm that my participation has been explained and consent to taking part in the experiment,relative,1,undefined,undefined,1,0,1,0,102,102,0,0,0,102,0,0,0,0,0,0,NA,0,102,0,0,0,NA,102,923,213,04/09/2018 10:37,A template containing a practice and an experimental phase,96,no,800,1280,15.72330189,yes,Exp_10_working.osexp,C:\Users\russe\Dropbox,no,mono,no,32,no,#ffffff,no,I confirm that my participation has been explained and consent to taking part in the experiment,NA,1,yes,800,jh,droid,86,15,11,C:/Users/russe/Dropbox/Exp_10/New folder/subject-6.csv,droid,Jazzy James,3.1.7,0,11,NA,1,NA,1,1,NA,11,443,NA,1159,NA,662,770,NA,443,2,legacy,Female,1024,2,48000,-16,experiment,6,even,droid,68708,NA,NA,133239,133688,81021,82844,NA,133241,91236,NA,NA,NA,NA,2370,NA,NA,133688,NA,82182,90466,NA,133241,Runtime for Android template,75,36442,87,0.125,no,1280,0.134522093
86.36363636,86.36363636,20,417.8295455,417.8295455,#000000,no,1,droid,legacy,legacy,0,I confirm that my participation has been explained and consent to taking part in the experiment,relative,1,undefined,undefined,1,0,1,0,103,103,0,0,0,103,0,0,0,0,0,0,NA,0,103,0,0,0,NA,103,763,262,04/09/2018 10:37,A template containing a practice and an experimental phase,96,no,800,1280,15.72330189,yes,Exp_10_working.osexp,C:\Users\russe\Dropbox,no,mono,no,32,no,#ffffff,no,I confirm that my participation has been explained and consent to taking part in the experiment,NA,2,yes,800,hg,droid,87,15,10,C:/Users/russe/Dropbox/Exp_10/New folder/subject-6.csv,droid,Jazzy James,3.1.7,0,10,NA,1,NA,1,1,NA,10,327,NA,1159,NA,662,770,NA,327,2,legacy,Female,1024,2,48000,-16,experiment,6,even,droid,68708,NA,NA,133748,134078,81021,82844,NA,133749,91236,NA,NA,NA,NA,2370,NA,NA,134078,NA,82182,90466,NA,133749,Runtime for Android template,76,36769,88,0.15385,no,1280,-0.62858298
