acc,accuracy,age,average_response_time,avg_rt,background,bidi,block,canvas_backend,clock_backend,color_backend,compensation,consent,coordinates,correct,correct_Instructions,correct_new_sketchpad,correct_new_touch_response_4,count_Age,count_Break,count_Consent,count_Experimental_sequence,count_ISI,count_Instructions,count_Prac_block,count_Sex,count_Test_pad,count_block_1,count_block_2,count_block_3,count_block_4,count_block_5,count_experiment,count_feedback,count_incongruent_block,count_logger,count_new_reset_feedback,count_new_sketchpad,count_new_sketchpad_1,count_new_sketchpad_3,count_new_touch_response_4,cursor_x,cursor_y,datetime,description,device_dpi,device_is_tablet,device_resolution_height,device_resolution_width,device_screen_diag,disable_garbage_collection,experiment_file,experiment_path,font_bold,font_family,font_italic,font_size,font_underline,foreground,form_clicks,form_response,form_var,freq,fullscreen,height,key,keyboard_backend,live_row,live_row_Prac_block,loc,logfile,mouse_backend,opensesame_codename,opensesame_version,repeat_cycle,response,response_Break,response_Instructions,response_feedback,response_new_sketchpad,response_new_sketchpad_1,response_new_sketchpad_3,response_new_touch_response_4,response_time,response_time_Break,response_time_Instructions,response_time_feedback,response_time_new_sketchpad,response_time_new_sketchpad_1,response_time_new_sketchpad_3,response_time_new_touch_response_4,round_decimals,sampler_backend,sex,sound_buf_size,sound_channels,sound_freq,sound_sample_size,start,subject_nr,subject_parity,synth_backend,time_Age,time_Break,time_Consent,time_Experimental_sequence,time_ISI,time_Instructions,time_Prac_block,time_Sex,time_Test_pad,time_block_1,time_block_2,time_block_3,time_block_4,time_block_5,time_experiment,time_feedback,time_incongruent_block,time_logger,time_new_reset_feedback,time_new_sketchpad,time_new_sketchpad_1,time_new_sketchpad_3,time_new_touch_response_4,title,total_correct,total_response_time,total_responses,tp,uniform_coordinates,width,z
100,100,20,779,779,#000000,no,NA,droid,legacy,legacy,0,I confirm that my participation has been explained and consent to taking part in the experiment,relative,1,undefined,undefined,1,0,1,0,0,0,0,0,0,0,0,0,0,0,0,0,NA,0,0,0,0,0,NA,0,723,126,04/09/2018 11:15,A template containing a practice and an experimental phase,96,no,800,1280,15.72330189,yes,Exp_10_working.osexp,C:\Users\russe\Dropbox,no,mono,no,32,no,#ffffff,no,I confirm that my participation has been explained and consent to taking part in the experiment,NA,NA,yes,800,NA,droid,0,0,4,C:/Users/russe/Dropbox/Exp_10/New folder/subject-8.csv,droid,Jazzy James,3.1.7,0,4,NA,1,NA,1,NA,NA,4,779,NA,44351,NA,574,NA,NA,779,2,legacy,Female,1024,2,48000,-16,experiment,8,even,droid,7734,NA,NA,57714,58496,12767,57694,NA,57715,NA,NA,NA,NA,NA,2370,NA,NA,58496,NA,57120,NA,NA,57715,Runtime for Android template,1,779,1,NA,no,1280,4.63530687
100,100,20,650,650,#000000,no,NA,droid,legacy,legacy,0,I confirm that my participation has been explained and consent to taking part in the experiment,relative,1,undefined,undefined,1,0,1,0,1,1,0,0,0,1,0,0,0,0,0,0,NA,0,1,0,0,0,NA,1,385,311,04/09/2018 11:15,A template containing a practice and an experimental phase,96,no,800,1280,15.72330189,yes,Exp_10_working.osexp,C:\Users\russe\Dropbox,no,mono,no,32,no,#ffffff,no,I confirm that my participation has been explained and consent to taking part in the experiment,NA,NA,yes,800,NA,droid,1,1,8,C:/Users/russe/Dropbox/Exp_10/New folder/subject-8.csv,droid,Jazzy James,3.1.7,0,8,NA,1,NA,1,NA,NA,8,521,NA,44351,NA,574,NA,NA,521,2,legacy,Female,1024,2,48000,-16,experiment,8,even,droid,7734,NA,NA,58587,59111,12767,57694,NA,58589,NA,NA,NA,NA,NA,2370,NA,NA,59111,NA,57120,NA,NA,58589,Runtime for Android template,2,1300,2,NA,no,1280,1.340555491
100,100,20,584,584,#000000,no,NA,droid,legacy,legacy,0,I confirm that my participation has been explained and consent to taking part in the experiment,relative,1,undefined,undefined,1,0,1,0,2,2,0,0,0,2,0,0,0,0,0,0,NA,0,2,0,0,0,NA,2,553,495,04/09/2018 11:15,A template containing a practice and an experimental phase,96,no,800,1280,15.72330189,yes,Exp_10_working.osexp,C:\Users\russe\Dropbox,no,mono,no,32,no,#ffffff,no,I confirm that my participation has been explained and consent to taking part in the experiment,NA,NA,yes,800,NA,droid,2,2,15,C:/Users/russe/Dropbox/Exp_10/New folder/subject-8.csv,droid,Jazzy James,3.1.7,0,15,NA,1,NA,1,NA,NA,15,452,NA,44351,NA,574,NA,NA,452,2,legacy,Female,1024,2,48000,-16,experiment,8,even,droid,7734,NA,NA,59177,59632,12767,57694,NA,59178,NA,NA,NA,NA,NA,2370,NA,NA,59632,NA,57120,NA,NA,59178,Runtime for Android template,3,1752,3,NA,no,1280,0.459401053
100,100,20,565.75,565.75,#000000,no,NA,droid,legacy,legacy,0,I confirm that my participation has been explained and consent to taking part in the experiment,relative,1,undefined,undefined,1,0,1,0,3,3,0,0,0,3,0,0,0,0,0,0,NA,0,3,0,0,0,NA,3,953,128,04/09/2018 11:15,A template containing a practice and an experimental phase,96,no,800,1280,15.72330189,yes,Exp_10_working.osexp,C:\Users\russe\Dropbox,no,mono,no,32,no,#ffffff,no,I confirm that my participation has been explained and consent to taking part in the experiment,NA,NA,yes,800,NA,droid,3,3,5,C:/Users/russe/Dropbox/Exp_10/New folder/subject-8.csv,droid,Jazzy James,3.1.7,0,5,NA,1,NA,1,NA,NA,5,511,NA,44351,NA,574,NA,NA,511,2,legacy,Female,1024,2,48000,-16,experiment,8,even,droid,7734,NA,NA,59685,60200,12767,57694,NA,59687,NA,NA,NA,NA,NA,2370,NA,NA,60200,NA,57120,NA,NA,59687,Runtime for Android template,4,2263,4,NA,no,1280,1.21285195
100,100,20,550,550,#000000,no,NA,droid,legacy,legacy,0,I confirm that my participation has been explained and consent to taking part in the experiment,relative,1,undefined,undefined,1,0,1,0,4,4,0,0,0,4,0,0,0,0,0,0,NA,0,4,0,0,0,NA,4,983,627,04/09/2018 11:15,A template containing a practice and an experimental phase,96,no,800,1280,15.72330189,yes,Exp_10_working.osexp,C:\Users\russe\Dropbox,no,mono,no,32,no,#ffffff,no,I confirm that my participation has been explained and consent to taking part in the experiment,NA,NA,yes,800,NA,droid,4,4,23,C:/Users/russe/Dropbox/Exp_10/New folder/subject-8.csv,droid,Jazzy James,3.1.7,0,23,NA,1,NA,1,NA,NA,23,487,NA,44351,NA,574,NA,NA,487,2,legacy,Female,1024,2,48000,-16,experiment,8,even,droid,7734,NA,NA,60269,60760,12767,57694,NA,60271,NA,NA,NA,NA,NA,2370,NA,NA,60760,NA,57120,NA,NA,60271,Runtime for Android template,5,2750,5,NA,no,1280,0.906363449
100,100,20,533.3333333,533.3333333,#000000,no,NA,droid,legacy,legacy,0,I confirm that my participation has been explained and consent to taking part in the experiment,relative,1,undefined,undefined,1,0,1,0,5,5,0,0,0,5,0,0,0,0,0,0,NA,0,5,0,0,0,NA,5,399,661,04/09/2018 11:15,A template containing a practice and an experimental phase,96,no,800,1280,15.72330189,yes,Exp_10_working.osexp,C:\Users\russe\Dropbox,no,mono,no,32,no,#ffffff,no,I confirm that my participation has been explained and consent to taking part in the experiment,NA,NA,yes,800,NA,droid,5,5,20,C:/Users/russe/Dropbox/Exp_10/New folder/subject-8.csv,droid,Jazzy James,3.1.7,0,20,NA,1,NA,1,NA,NA,20,450,NA,44351,NA,574,NA,NA,450,2,legacy,Female,1024,2,48000,-16,experiment,8,even,droid,7734,NA,NA,60819,61272,12767,57694,NA,60820,NA,NA,NA,NA,NA,2370,NA,NA,61272,NA,57120,NA,NA,60820,Runtime for Android template,6,3200,6,NA,no,1280,0.433860345
100,100,20,512.8571429,512.8571429,#000000,no,NA,droid,legacy,legacy,0,I confirm that my participation has been explained and consent to taking part in the experiment,relative,1,undefined,undefined,1,0,1,0,6,6,0,0,0,6,0,0,0,0,0,0,NA,0,6,0,0,0,NA,6,751,529,04/09/2018 11:15,A template containing a practice and an experimental phase,96,no,800,1280,15.72330189,yes,Exp_10_working.osexp,C:\Users\russe\Dropbox,no,mono,no,32,no,#ffffff,no,I confirm that my participation has been explained and consent to taking part in the experiment,NA,NA,yes,800,NA,droid,6,6,16,C:/Users/russe/Dropbox/Exp_10/New folder/subject-8.csv,droid,Jazzy James,3.1.7,0,16,NA,1,NA,1,NA,NA,16,390,NA,44351,NA,574,NA,NA,390,2,legacy,Female,1024,2,48000,-16,experiment,8,even,droid,7734,NA,NA,61327,61719,12767,57694,NA,61328,NA,NA,NA,NA,NA,2370,NA,NA,61719,NA,57120,NA,NA,61328,Runtime for Android template,7,3590,7,NA,no,1280,-0.332360906
100,100,20,493.5,493.5,#000000,no,NA,droid,legacy,legacy,0,I confirm that my participation has been explained and consent to taking part in the experiment,relative,1,undefined,undefined,1,0,1,0,7,7,0,0,0,7,0,0,0,0,0,0,NA,0,7,0,0,0,NA,7,927,485,04/09/2018 11:15,A template containing a practice and an experimental phase,96,no,800,1280,15.72330189,yes,Exp_10_working.osexp,C:\Users\russe\Dropbox,no,mono,no,32,no,#ffffff,no,I confirm that my participation has been explained and consent to taking part in the experiment,NA,NA,yes,800,NA,droid,7,7,17,C:/Users/russe/Dropbox/Exp_10/New folder/subject-8.csv,droid,Jazzy James,3.1.7,0,17,NA,1,NA,1,NA,NA,17,358,NA,44351,NA,574,NA,NA,358,2,legacy,Female,1024,2,48000,-16,experiment,8,even,droid,7734,NA,NA,61774,62135,12767,57694,NA,61775,NA,NA,NA,NA,NA,2370,NA,NA,62136,NA,57120,NA,NA,61776,Runtime for Android template,8,3948,8,NA,no,1280,-0.74101224
100,100,20,504,504,#000000,no,NA,droid,legacy,legacy,0,I confirm that my participation has been explained and consent to taking part in the experiment,relative,1,undefined,undefined,1,0,1,0,8,8,0,0,0,8,0,0,0,0,0,0,NA,0,8,0,0,0,NA,8,764,301,04/09/2018 11:15,A template containing a practice and an experimental phase,96,no,800,1280,15.72330189,yes,Exp_10_working.osexp,C:\Users\russe\Dropbox,no,mono,no,32,no,#ffffff,no,I confirm that my participation has been explained and consent to taking part in the experiment,NA,NA,yes,800,NA,droid,8,8,10,C:/Users/russe/Dropbox/Exp_10/New folder/subject-8.csv,droid,Jazzy James,3.1.7,0,10,NA,1,NA,1,NA,NA,10,588,NA,44351,NA,574,NA,NA,588,2,legacy,Female,1024,2,48000,-16,experiment,8,even,droid,7734,NA,NA,62200,62791,12767,57694,NA,62202,NA,NA,NA,NA,NA,2370,NA,NA,62791,NA,57120,NA,NA,62202,Runtime for Android template,9,4536,9,NA,no,1280,2.196169222
100,100,20,494.5,494.5,#000000,no,NA,droid,legacy,legacy,0,I confirm that my participation has been explained and consent to taking part in the experiment,relative,1,undefined,undefined,1,0,1,0,9,9,0,0,0,9,0,0,0,0,0,0,NA,0,9,0,0,0,NA,9,227,72,04/09/2018 11:15,A template containing a practice and an experimental phase,96,no,800,1280,15.72330189,yes,Exp_10_working.osexp,C:\Users\russe\Dropbox,no,mono,no,32,no,#ffffff,no,I confirm that my participation has been explained and consent to taking part in the experiment,NA,NA,yes,800,NA,droid,9,9,2,C:/Users/russe/Dropbox/Exp_10/New folder/subject-8.csv,droid,Jazzy James,3.1.7,0,2,NA,1,NA,1,NA,NA,2,409,NA,44351,NA,574,NA,NA,409,2,legacy,Female,1024,2,48000,-16,experiment,8,even,droid,7734,NA,NA,62852,63263,12767,57694,NA,62853,NA,NA,NA,NA,NA,2370,NA,NA,63263,NA,57120,NA,NA,62853,Runtime for Android template,10,4945,10,NA,no,1280,-0.089724177
100,100,20,482.5454545,482.5454545,#000000,no,NA,droid,legacy,legacy,0,I confirm that my participation has been explained and consent to taking part in the experiment,relative,1,undefined,undefined,1,0,1,0,10,10,0,0,0,10,0,0,0,0,0,0,NA,0,10,0,0,0,NA,10,537,115,04/09/2018 11:15,A template containing a practice and an experimental phase,96,no,800,1280,15.72330189,yes,Exp_10_working.osexp,C:\Users\russe\Dropbox,no,mono,no,32,no,#ffffff,no,I confirm that my participation has been explained and consent to taking part in the experiment,NA,NA,yes,800,NA,droid,10,10,3,C:/Users/russe/Dropbox/Exp_10/New folder/subject-8.csv,droid,Jazzy James,3.1.7,0,3,NA,1,NA,1,NA,NA,3,363,NA,44351,NA,574,NA,NA,363,2,legacy,Female,1024,2,48000,-16,experiment,8,even,droid,7734,NA,NA,63329,63696,12767,57694,NA,63331,NA,NA,NA,NA,NA,2370,NA,NA,63696,NA,57120,NA,NA,63331,Runtime for Android template,11,5308,11,NA,no,1280,-0.677160469
100,100,20,480.5,480.5,#000000,no,NA,droid,legacy,legacy,0,I confirm that my participation has been explained and consent to taking part in the experiment,relative,1,undefined,undefined,1,0,1,0,11,11,0,0,0,11,0,0,0,0,0,0,NA,0,11,0,0,0,NA,11,750,666,04/09/2018 11:15,A template containing a practice and an experimental phase,96,no,800,1280,15.72330189,yes,Exp_10_working.osexp,C:\Users\russe\Dropbox,no,mono,no,32,no,#ffffff,no,I confirm that my participation has been explained and consent to taking part in the experiment,NA,NA,yes,800,NA,droid,11,11,22,C:/Users/russe/Dropbox/Exp_10/New folder/subject-8.csv,droid,Jazzy James,3.1.7,0,22,NA,1,NA,1,NA,NA,22,458,NA,44351,NA,574,NA,NA,458,2,legacy,Female,1024,2,48000,-16,experiment,8,even,droid,7734,NA,NA,63754,64217,12767,57694,NA,63756,NA,NA,NA,NA,NA,2370,NA,NA,64217,NA,57120,NA,NA,63756,Runtime for Android template,12,5766,12,NA,no,1280,0.536023178
92.30769231,92.30769231,20,476.8461538,476.8461538,#000000,no,NA,droid,legacy,legacy,0,I confirm that my participation has been explained and consent to taking part in the experiment,relative,0,undefined,undefined,0,0,1,0,12,12,0,0,0,12,0,0,0,0,0,0,NA,0,12,0,0,0,NA,12,437,502,04/09/2018 11:15,A template containing a practice and an experimental phase,96,no,800,1280,15.72330189,yes,Exp_10_working.osexp,C:\Users\russe\Dropbox,no,mono,no,32,no,#ffffff,no,I confirm that my participation has been explained and consent to taking part in the experiment,NA,NA,yes,800,NA,droid,12,12,14,C:/Users/russe/Dropbox/Exp_10/New folder/subject-8.csv,droid,Jazzy James,3.1.7,0,15,NA,1,NA,1,NA,NA,15,433,NA,44351,NA,574,NA,NA,433,2,legacy,Female,1024,2,48000,-16,experiment,8,even,droid,7734,NA,NA,64276,64712,12767,57694,NA,64277,NA,NA,NA,NA,NA,2370,NA,NA,64712,NA,57120,NA,NA,64277,Runtime for Android template,12,6199,13,NA,no,1280,0.216764324
92.85714286,92.85714286,20,476.7857143,476.7857143,#000000,no,NA,droid,legacy,legacy,0,I confirm that my participation has been explained and consent to taking part in the experiment,relative,1,undefined,undefined,1,0,1,0,13,13,0,0,0,13,0,0,0,0,0,0,NA,0,13,0,0,0,NA,13,556,654,04/09/2018 11:15,A template containing a practice and an experimental phase,96,no,800,1280,15.72330189,yes,Exp_10_working.osexp,C:\Users\russe\Dropbox,no,mono,no,32,no,#ffffff,no,I confirm that my participation has been explained and consent to taking part in the experiment,NA,NA,yes,800,NA,droid,13,13,21,C:/Users/russe/Dropbox/Exp_10/New folder/subject-8.csv,droid,Jazzy James,3.1.7,0,21,NA,1,NA,1,NA,NA,21,476,NA,44351,NA,574,NA,NA,476,2,legacy,Female,1024,2,48000,-16,experiment,8,even,droid,7734,NA,NA,64769,65247,12767,57694,NA,64770,NA,NA,NA,NA,NA,2370,NA,NA,65247,NA,57120,NA,NA,64770,Runtime for Android template,13,6675,14,NA,no,1280,0.765889553
86.66666667,86.66666667,20,473,473,#000000,no,NA,droid,legacy,legacy,0,I confirm that my participation has been explained and consent to taking part in the experiment,relative,0,undefined,undefined,0,0,1,0,14,14,0,0,0,14,0,0,0,0,0,0,NA,0,14,0,0,0,NA,14,646,202,04/09/2018 11:15,A template containing a practice and an experimental phase,96,no,800,1280,15.72330189,yes,Exp_10_working.osexp,C:\Users\russe\Dropbox,no,mono,no,32,no,#ffffff,no,I confirm that my participation has been explained and consent to taking part in the experiment,NA,NA,yes,800,NA,droid,14,14,9,C:/Users/russe/Dropbox/Exp_10/New folder/subject-8.csv,droid,Jazzy James,3.1.7,0,10,NA,1,NA,1,NA,NA,10,420,NA,44351,NA,574,NA,NA,420,2,legacy,Female,1024,2,48000,-16,experiment,8,even,droid,7734,NA,NA,65448,65872,12767,57694,NA,65450,NA,NA,NA,NA,NA,2370,NA,NA,65872,NA,57120,NA,NA,65450,Runtime for Android template,13,7095,15,NA,no,1280,0.050749719
87.5,87.5,20,467.25,467.25,#000000,no,NA,droid,legacy,legacy,0,I confirm that my participation has been explained and consent to taking part in the experiment,relative,1,undefined,undefined,1,0,1,0,15,15,0,0,0,15,0,0,0,0,0,0,NA,0,15,0,0,0,NA,15,923,314,04/09/2018 11:15,A template containing a practice and an experimental phase,96,no,800,1280,15.72330189,yes,Exp_10_working.osexp,C:\Users\russe\Dropbox,no,mono,no,32,no,#ffffff,no,I confirm that my participation has been explained and consent to taking part in the experiment,NA,NA,yes,800,NA,droid,15,15,11,C:/Users/russe/Dropbox/Exp_10/New folder/subject-8.csv,droid,Jazzy James,3.1.7,0,11,NA,1,NA,1,NA,NA,11,381,NA,44351,NA,574,NA,NA,381,2,legacy,Female,1024,2,48000,-16,experiment,8,even,droid,7734,NA,NA,65936,66320,12767,57694,NA,65937,NA,NA,NA,NA,NA,2370,NA,NA,66320,NA,57120,NA,NA,65937,Runtime for Android template,14,7476,16,NA,no,1280,-0.447294094
100,100,20,537,537,#000000,no,1,droid,legacy,legacy,0,I confirm that my participation has been explained and consent to taking part in the experiment,relative,1,undefined,undefined,1,0,1,0,16,16,0,0,0,16,0,0,0,0,0,0,NA,0,16,0,0,0,NA,16,267,297,04/09/2018 11:15,A template containing a practice and an experimental phase,96,no,800,1280,15.72330189,yes,Exp_10_working.osexp,C:\Users\russe\Dropbox,no,mono,no,32,no,#ffffff,no,I confirm that my participation has been explained and consent to taking part in the experiment,NA,2,yes,800,oe,droid,0,15,8,C:/Users/russe/Dropbox/Exp_10/New folder/subject-8.csv,droid,Jazzy James,3.1.7,0,8,NA,1,NA,1,1,NA,8,537,NA,44351,NA,574,721,NA,537,2,legacy,Female,1024,2,48000,-16,experiment,8,even,droid,7734,NA,NA,67116,67655,12767,57694,NA,67117,67095,NA,NA,NA,NA,2370,NA,NA,67655,NA,57120,66373,NA,67117,Runtime for Android template,1,537,1,0.125,no,1280,1.544881158
100,100,20,373,373,#000000,no,1,droid,legacy,legacy,0,I confirm that my participation has been explained and consent to taking part in the experiment,relative,1,undefined,undefined,1,0,1,0,17,17,0,0,0,17,0,0,0,0,0,0,NA,0,17,0,0,0,NA,17,284,311,04/09/2018 11:15,A template containing a practice and an experimental phase,96,no,800,1280,15.72330189,yes,Exp_10_working.osexp,C:\Users\russe\Dropbox,no,mono,no,32,no,#ffffff,no,I confirm that my participation has been explained and consent to taking part in the experiment,NA,2,yes,800,ee,droid,1,15,8,C:/Users/russe/Dropbox/Exp_10/New folder/subject-8.csv,droid,Jazzy James,3.1.7,0,8,NA,1,NA,1,1,NA,8,209,NA,44351,NA,574,721,NA,209,2,legacy,Female,1024,2,48000,-16,experiment,8,even,droid,7734,NA,NA,67715,67927,12767,57694,NA,67717,67095,NA,NA,NA,NA,2370,NA,NA,67927,NA,57120,66373,NA,67717,Runtime for Android template,2,746,2,0.16667,no,1280,-2.643795013
100,100,20,378,378,#000000,no,1,droid,legacy,legacy,0,I confirm that my participation has been explained and consent to taking part in the experiment,relative,1,undefined,undefined,1,0,1,0,18,18,0,0,0,18,0,0,0,0,0,0,NA,0,18,0,0,0,NA,18,740,484,04/09/2018 11:15,A template containing a practice and an experimental phase,96,no,800,1280,15.72330189,yes,Exp_10_working.osexp,C:\Users\russe\Dropbox,no,mono,no,32,no,#ffffff,no,I confirm that my participation has been explained and consent to taking part in the experiment,NA,1,yes,800,ek,droid,2,15,16,C:/Users/russe/Dropbox/Exp_10/New folder/subject-8.csv,droid,Jazzy James,3.1.7,0,16,NA,1,NA,1,1,NA,16,388,NA,44351,NA,574,721,NA,388,2,legacy,Female,1024,2,48000,-16,experiment,8,even,droid,7734,NA,NA,67977,68368,12767,57694,NA,67978,67095,NA,NA,NA,NA,2370,NA,NA,68368,NA,57120,66373,NA,67978,Runtime for Android template,3,1134,3,0.08333,no,1280,-0.357901615
100,100,20,384,384,#000000,no,1,droid,legacy,legacy,0,I confirm that my participation has been explained and consent to taking part in the experiment,relative,1,undefined,undefined,1,0,1,0,19,19,0,0,0,19,0,0,0,0,0,0,NA,0,19,0,0,0,NA,19,731,181,04/09/2018 11:15,A template containing a practice and an experimental phase,96,no,800,1280,15.72330189,yes,Exp_10_working.osexp,C:\Users\russe\Dropbox,no,mono,no,32,no,#ffffff,no,I confirm that my participation has been explained and consent to taking part in the experiment,NA,1,yes,800,kc,droid,3,15,4,C:/Users/russe/Dropbox/Exp_10/New folder/subject-8.csv,droid,Jazzy James,3.1.7,0,4,NA,1,NA,1,1,NA,4,402,NA,44351,NA,574,721,NA,402,2,legacy,Female,1024,2,48000,-16,experiment,8,even,droid,7734,NA,NA,68426,68831,12767,57694,NA,68428,67095,NA,NA,NA,NA,2370,NA,NA,68831,NA,57120,66373,NA,68428,Runtime for Android template,4,1536,4,0.125,no,1280,-0.179116656
100,100,20,380.6,380.6,#000000,no,1,droid,legacy,legacy,0,I confirm that my participation has been explained and consent to taking part in the experiment,relative,1,undefined,undefined,1,0,1,0,20,20,0,0,0,20,0,0,0,0,0,0,NA,0,20,0,0,0,NA,20,982,533,04/09/2018 11:15,A template containing a practice and an experimental phase,96,no,800,1280,15.72330189,yes,Exp_10_working.osexp,C:\Users\russe\Dropbox,no,mono,no,32,no,#ffffff,no,I confirm that my participation has been explained and consent to taking part in the experiment,NA,1,yes,800,cl,droid,4,15,17,C:/Users/russe/Dropbox/Exp_10/New folder/subject-8.csv,droid,Jazzy James,3.1.7,0,17,NA,1,NA,1,1,NA,17,367,NA,44351,NA,574,721,NA,367,2,legacy,Female,1024,2,48000,-16,experiment,8,even,droid,7734,NA,NA,68893,69263,12767,57694,NA,68895,67095,NA,NA,NA,NA,2370,NA,NA,69263,NA,57120,66373,NA,68895,Runtime for Android template,5,1903,5,0.1,no,1280,-0.626079052
100,100,20,393.6666667,393.6666667,#000000,no,1,droid,legacy,legacy,0,I confirm that my participation has been explained and consent to taking part in the experiment,relative,1,undefined,undefined,1,0,1,0,21,21,0,0,0,21,0,0,0,0,0,0,NA,0,21,0,0,0,NA,21,269,685,04/09/2018 11:15,A template containing a practice and an experimental phase,96,no,800,1280,15.72330189,yes,Exp_10_working.osexp,C:\Users\russe\Dropbox,no,mono,no,32,no,#ffffff,no,I confirm that my participation has been explained and consent to taking part in the experiment,NA,1,yes,800,lm,droid,5,15,20,C:/Users/russe/Dropbox/Exp_10/New folder/subject-8.csv,droid,Jazzy James,3.1.7,0,20,NA,1,NA,1,1,NA,20,459,NA,44351,NA,574,721,NA,459,2,legacy,Female,1024,2,48000,-16,experiment,8,even,droid,7734,NA,NA,69329,69792,12767,57694,NA,69331,67095,NA,NA,NA,NA,2370,NA,NA,69792,NA,57120,66373,NA,69331,Runtime for Android template,6,2362,6,0.25,no,1280,0.548793532
85.71428571,85.71428571,20,393.4285714,393.4285714,#000000,no,1,droid,legacy,legacy,0,I confirm that my participation has been explained and consent to taking part in the experiment,relative,0,undefined,undefined,0,0,1,0,22,22,0,0,0,22,0,0,0,0,0,0,NA,0,22,0,0,0,NA,22,428,188,04/09/2018 11:15,A template containing a practice and an experimental phase,96,no,800,1280,15.72330189,yes,Exp_10_working.osexp,C:\Users\russe\Dropbox,no,mono,no,32,no,#ffffff,no,I confirm that my participation has been explained and consent to taking part in the experiment,NA,2,yes,800,me,droid,6,15,8,C:/Users/russe/Dropbox/Exp_10/New folder/subject-8.csv,droid,Jazzy James,3.1.7,0,3,NA,1,NA,1,1,NA,3,392,NA,44351,NA,574,721,NA,392,2,legacy,Female,1024,2,48000,-16,experiment,8,even,droid,7734,NA,NA,69892,70288,12767,57694,NA,69894,67095,NA,NA,NA,NA,2370,NA,NA,70288,NA,57120,66373,NA,69894,Runtime for Android template,6,2754,7,0.22222,no,1280,-0.306820198
75,75,20,401.25,401.25,#000000,no,1,droid,legacy,legacy,0,I confirm that my participation has been explained and consent to taking part in the experiment,relative,0,undefined,undefined,0,0,1,0,23,23,0,0,0,23,0,0,0,0,0,0,NA,0,23,0,0,0,NA,23,447,146,04/09/2018 11:15,A template containing a practice and an experimental phase,96,no,800,1280,15.72330189,yes,Exp_10_working.osexp,C:\Users\russe\Dropbox,no,mono,no,32,no,#ffffff,no,I confirm that my participation has been explained and consent to taking part in the experiment,NA,1,yes,800,ea,droid,7,15,2,C:/Users/russe/Dropbox/Exp_10/New folder/subject-8.csv,droid,Jazzy James,3.1.7,0,3,NA,1,NA,1,1,NA,3,456,NA,44351,NA,574,721,NA,456,2,legacy,Female,1024,2,48000,-16,experiment,8,even,droid,7734,NA,NA,70356,70815,12767,57694,NA,70358,67095,NA,NA,NA,NA,2370,NA,NA,70815,NA,57120,66373,NA,70358,Runtime for Android template,6,3210,8,0.08333,no,1280,0.51048247
77.77777778,77.77777778,20,406.2222222,406.2222222,#000000,no,1,droid,legacy,legacy,0,I confirm that my participation has been explained and consent to taking part in the experiment,relative,1,undefined,undefined,1,0,1,0,24,24,0,0,0,24,0,0,0,0,0,0,NA,0,24,0,0,0,NA,24,688,726,04/09/2018 11:15,A template containing a practice and an experimental phase,96,no,800,1280,15.72330189,yes,Exp_10_working.osexp,C:\Users\russe\Dropbox,no,mono,no,32,no,#ffffff,no,I confirm that my participation has been explained and consent to taking part in the experiment,NA,2,yes,800,ao,droid,8,15,22,C:/Users/russe/Dropbox/Exp_10/New folder/subject-8.csv,droid,Jazzy James,3.1.7,0,22,NA,1,NA,1,1,NA,22,446,NA,44351,NA,574,721,NA,446,2,legacy,Female,1024,2,48000,-16,experiment,8,even,droid,7734,NA,NA,70870,71320,12767,57694,NA,70872,67095,NA,NA,NA,NA,2370,NA,NA,71320,NA,57120,66373,NA,70872,Runtime for Android template,7,3656,9,0.33333,no,1280,0.382778928
80,80,20,406.6,406.6,#000000,no,1,droid,legacy,legacy,0,I confirm that my participation has been explained and consent to taking part in the experiment,relative,1,undefined,undefined,1,0,1,0,25,25,0,0,0,25,0,0,0,0,0,0,NA,0,25,0,0,0,NA,25,471,513,04/09/2018 11:15,A template containing a practice and an experimental phase,96,no,800,1280,15.72330189,yes,Exp_10_working.osexp,C:\Users\russe\Dropbox,no,mono,no,32,no,#ffffff,no,I confirm that my participation has been explained and consent to taking part in the experiment,NA,1,yes,800,oj,droid,9,15,15,C:/Users/russe/Dropbox/Exp_10/New folder/subject-8.csv,droid,Jazzy James,3.1.7,0,15,NA,1,NA,1,1,NA,15,410,NA,44351,NA,574,721,NA,410,2,legacy,Female,1024,2,48000,-16,experiment,8,even,droid,7734,NA,NA,71378,71792,12767,57694,NA,71380,67095,NA,NA,NA,NA,2370,NA,NA,71792,NA,57120,66373,NA,71380,Runtime for Android template,8,4066,10,0.0625,no,1280,-0.076953823
81.81818182,81.81818182,20,404.4545455,404.4545455,#000000,no,1,droid,legacy,legacy,0,I confirm that my participation has been explained and consent to taking part in the experiment,relative,1,undefined,undefined,1,0,1,0,26,26,0,0,0,26,0,0,0,0,0,0,NA,0,26,0,0,0,NA,26,575,656,04/09/2018 11:15,A template containing a practice and an experimental phase,96,no,800,1280,15.72330189,yes,Exp_10_working.osexp,C:\Users\russe\Dropbox,no,mono,no,32,no,#ffffff,no,I confirm that my participation has been explained and consent to taking part in the experiment,NA,1,yes,800,jn,droid,10,15,21,C:/Users/russe/Dropbox/Exp_10/New folder/subject-8.csv,droid,Jazzy James,3.1.7,0,21,NA,1,NA,1,1,NA,21,383,NA,44351,NA,574,721,NA,383,2,legacy,Female,1024,2,48000,-16,experiment,8,even,droid,7734,NA,NA,71877,72264,12767,57694,NA,71879,67095,NA,NA,NA,NA,2370,NA,NA,72264,NA,57120,66373,NA,71879,Runtime for Android template,9,4449,11,0.125,no,1280,-0.421753385
83.33333333,83.33333333,20,404.3333333,404.3333333,#000000,no,1,droid,legacy,legacy,0,I confirm that my participation has been explained and consent to taking part in the experiment,relative,1,undefined,undefined,1,0,1,0,27,27,0,0,0,27,0,0,0,0,0,0,NA,0,27,0,0,0,NA,27,952,368,04/09/2018 11:15,A template containing a practice and an experimental phase,96,no,800,1280,15.72330189,yes,Exp_10_working.osexp,C:\Users\russe\Dropbox,no,mono,no,32,no,#ffffff,no,I confirm that my participation has been explained and consent to taking part in the experiment,NA,4,yes,800,nh,droid,11,15,11,C:/Users/russe/Dropbox/Exp_10/New folder/subject-8.csv,droid,Jazzy James,3.1.7,0,11,NA,1,NA,1,1,NA,11,403,NA,44351,NA,574,721,NA,403,2,legacy,Female,1024,2,48000,-16,experiment,8,even,droid,7734,NA,NA,72321,72728,12767,57694,NA,72323,67095,NA,NA,NA,NA,2370,NA,NA,72728,NA,57120,66373,NA,72323,Runtime for Android template,10,4852,12,0.8,no,1280,-0.166346302
84.61538462,84.61538462,20,404.5384615,404.5384615,#000000,no,1,droid,legacy,legacy,0,I confirm that my participation has been explained and consent to taking part in the experiment,relative,1,undefined,undefined,1,0,1,0,28,28,0,0,0,28,0,0,0,0,0,0,NA,0,28,0,0,0,NA,28,278,505,04/09/2018 11:15,A template containing a practice and an experimental phase,96,no,800,1280,15.72330189,yes,Exp_10_working.osexp,C:\Users\russe\Dropbox,no,mono,no,32,no,#ffffff,no,I confirm that my participation has been explained and consent to taking part in the experiment,NA,1,yes,800,hi,droid,12,15,14,C:/Users/russe/Dropbox/Exp_10/New folder/subject-8.csv,droid,Jazzy James,3.1.7,0,14,NA,1,NA,1,1,NA,14,407,NA,44351,NA,574,721,NA,407,2,legacy,Female,1024,2,48000,-16,experiment,8,even,droid,7734,NA,NA,72845,73255,12767,57694,NA,72847,67095,NA,NA,NA,NA,2370,NA,NA,73255,NA,57120,66373,NA,72847,Runtime for Android template,11,5259,13,0.07692,no,1280,-0.115264885
85.71428571,85.71428571,20,411.3571429,411.3571429,#000000,no,1,droid,legacy,legacy,0,I confirm that my participation has been explained and consent to taking part in the experiment,relative,1,undefined,undefined,1,0,1,0,29,29,0,0,0,29,0,0,0,0,0,0,NA,0,29,0,0,0,NA,29,701,155,04/09/2018 11:15,A template containing a practice and an experimental phase,96,no,800,1280,15.72330189,yes,Exp_10_working.osexp,C:\Users\russe\Dropbox,no,mono,no,32,no,#ffffff,no,I confirm that my participation has been explained and consent to taking part in the experiment,NA,1,yes,800,ic,droid,13,15,4,C:/Users/russe/Dropbox/Exp_10/New folder/subject-8.csv,droid,Jazzy James,3.1.7,0,4,NA,1,NA,1,1,NA,4,500,NA,44351,NA,574,721,NA,500,2,legacy,Female,1024,2,48000,-16,experiment,8,even,droid,7734,NA,NA,73344,73849,12767,57694,NA,73346,67095,NA,NA,NA,NA,2370,NA,NA,73849,NA,57120,66373,NA,73346,Runtime for Android template,12,5759,14,1,no,1280,1.072378054
86.66666667,86.66666667,20,407.4,407.4,#000000,no,1,droid,legacy,legacy,0,I confirm that my participation has been explained and consent to taking part in the experiment,relative,1,undefined,undefined,1,0,1,0,30,30,0,0,0,30,0,0,0,0,0,0,NA,0,30,0,0,0,NA,30,744,378,04/09/2018 11:15,A template containing a practice and an experimental phase,96,no,800,1280,15.72330189,yes,Exp_10_working.osexp,C:\Users\russe\Dropbox,no,mono,no,32,no,#ffffff,no,I confirm that my participation has been explained and consent to taking part in the experiment,NA,1,yes,800,cg,droid,14,15,10,C:/Users/russe/Dropbox/Exp_10/New folder/subject-8.csv,droid,Jazzy James,3.1.7,0,10,NA,1,NA,1,1,NA,10,352,NA,44351,NA,574,721,NA,352,2,legacy,Female,1024,2,48000,-16,experiment,8,even,droid,7734,NA,NA,73909,74264,12767,57694,NA,73910,67095,NA,NA,NA,NA,2370,NA,NA,74264,NA,57120,66373,NA,73910,Runtime for Android template,13,6111,15,0.1,no,1280,-0.817634365
81.25,81.25,20,404.875,404.875,#000000,no,1,droid,legacy,legacy,0,I confirm that my participation has been explained and consent to taking part in the experiment,relative,0,undefined,undefined,0,0,1,0,31,31,0,0,0,31,0,0,0,0,0,0,NA,0,31,0,0,0,NA,31,1076,575,04/09/2018 11:15,A template containing a practice and an experimental phase,96,no,800,1280,15.72330189,yes,Exp_10_working.osexp,C:\Users\russe\Dropbox,no,mono,no,32,no,#ffffff,no,I confirm that my participation has been explained and consent to taking part in the experiment,NA,1,yes,800,gl,droid,15,15,17,C:/Users/russe/Dropbox/Exp_10/New folder/subject-8.csv,droid,Jazzy James,3.1.7,0,18,NA,1,NA,1,1,NA,18,367,NA,44351,NA,574,721,NA,367,2,legacy,Female,1024,2,48000,-16,experiment,8,even,droid,7734,NA,NA,74437,74808,12767,57694,NA,74439,67095,NA,NA,NA,NA,2370,NA,NA,74808,NA,57120,66373,NA,74439,Runtime for Android template,13,6478,16,0.2,no,1280,-0.626079052
82.35294118,82.35294118,20,412.5882353,412.5882353,#000000,no,1,droid,legacy,legacy,0,I confirm that my participation has been explained and consent to taking part in the experiment,relative,1,undefined,undefined,1,0,1,0,32,32,0,0,0,32,0,0,0,0,0,0,NA,0,32,0,0,0,NA,32,845,92,04/09/2018 11:15,A template containing a practice and an experimental phase,96,no,800,1280,15.72330189,yes,Exp_10_working.osexp,C:\Users\russe\Dropbox,no,mono,no,32,no,#ffffff,no,I confirm that my participation has been explained and consent to taking part in the experiment,NA,1,yes,800,lc,droid,16,15,4,C:/Users/russe/Dropbox/Exp_10/New folder/subject-8.csv,droid,Jazzy James,3.1.7,0,4,NA,1,NA,1,1,NA,4,536,NA,44351,NA,574,721,NA,536,2,legacy,Female,1024,2,48000,-16,experiment,8,even,droid,7734,NA,NA,74861,75400,12767,57694,NA,74862,67095,NA,NA,NA,NA,2370,NA,NA,75400,NA,57120,66373,NA,74862,Runtime for Android template,14,7014,17,0.25,no,1280,1.532110804
83.33333333,83.33333333,20,412,412,#000000,no,1,droid,legacy,legacy,0,I confirm that my participation has been explained and consent to taking part in the experiment,relative,1,undefined,undefined,1,0,1,0,33,33,0,0,0,33,0,0,0,0,0,0,NA,0,33,0,0,0,NA,33,757,676,04/09/2018 11:15,A template containing a practice and an experimental phase,96,no,800,1280,15.72330189,yes,Exp_10_working.osexp,C:\Users\russe\Dropbox,no,mono,no,32,no,#ffffff,no,I confirm that my participation has been explained and consent to taking part in the experiment,NA,3,yes,800,co,droid,17,15,22,C:/Users/russe/Dropbox/Exp_10/New folder/subject-8.csv,droid,Jazzy James,3.1.7,0,22,NA,1,NA,1,1,NA,22,402,NA,44351,NA,574,721,NA,402,2,legacy,Female,1024,2,48000,-16,experiment,8,even,droid,7734,NA,NA,75490,75895,12767,57694,NA,75492,67095,NA,NA,NA,NA,2370,NA,NA,75895,NA,57120,66373,NA,75492,Runtime for Android template,15,7416,18,0.3,no,1280,-0.179116656
84.21052632,84.21052632,20,409.8947368,409.8947368,#000000,no,1,droid,legacy,legacy,0,I confirm that my participation has been explained and consent to taking part in the experiment,relative,1,undefined,undefined,1,0,1,0,34,34,0,0,0,34,0,0,0,0,0,0,NA,0,34,0,0,0,NA,34,989,264,04/09/2018 11:15,A template containing a practice and an experimental phase,96,no,800,1280,15.72330189,yes,Exp_10_working.osexp,C:\Users\russe\Dropbox,no,mono,no,32,no,#ffffff,no,I confirm that my participation has been explained and consent to taking part in the experiment,NA,1,yes,800,oh,droid,18,15,11,C:/Users/russe/Dropbox/Exp_10/New folder/subject-8.csv,droid,Jazzy James,3.1.7,0,11,NA,1,NA,1,1,NA,11,372,NA,44351,NA,574,721,NA,372,2,legacy,Female,1024,2,48000,-16,experiment,8,even,droid,7734,NA,NA,75953,76328,12767,57694,NA,75954,67095,NA,NA,NA,NA,2370,NA,NA,76328,NA,57120,66373,NA,75954,Runtime for Android template,16,7788,19,0.0625,no,1280,-0.562227281
85,85,20,408.35,408.35,#000000,no,1,droid,legacy,legacy,0,I confirm that my participation has been explained and consent to taking part in the experiment,relative,1,undefined,undefined,1,0,1,0,35,35,0,0,0,35,0,0,0,0,0,0,NA,0,35,0,0,0,NA,35,524,513,04/09/2018 11:15,A template containing a practice and an experimental phase,96,no,800,1280,15.72330189,yes,Exp_10_working.osexp,C:\Users\russe\Dropbox,no,mono,no,32,no,#ffffff,no,I confirm that my participation has been explained and consent to taking part in the experiment,NA,2,yes,800,hj,droid,19,15,15,C:/Users/russe/Dropbox/Exp_10/New folder/subject-8.csv,droid,Jazzy James,3.1.7,0,15,NA,1,NA,1,1,NA,15,379,NA,44351,NA,574,721,NA,379,2,legacy,Female,1024,2,48000,-16,experiment,8,even,droid,7734,NA,NA,76385,76768,12767,57694,NA,76387,67095,NA,NA,NA,NA,2370,NA,NA,76768,NA,57120,66373,NA,76387,Runtime for Android template,17,8167,20,0.15385,no,1280,-0.472834802
85.71428571,85.71428571,20,406.5714286,406.5714286,#000000,no,1,droid,legacy,legacy,0,I confirm that my participation has been explained and consent to taking part in the experiment,relative,1,undefined,undefined,1,0,1,0,36,36,0,0,0,36,0,0,0,0,0,0,NA,0,36,0,0,0,NA,36,778,619,04/09/2018 11:15,A template containing a practice and an experimental phase,96,no,800,1280,15.72330189,yes,Exp_10_working.osexp,C:\Users\russe\Dropbox,no,mono,no,32,no,#ffffff,no,I confirm that my participation has been explained and consent to taking part in the experiment,NA,2,yes,800,jo,droid,20,15,22,C:/Users/russe/Dropbox/Exp_10/New folder/subject-8.csv,droid,Jazzy James,3.1.7,0,22,NA,1,NA,1,1,NA,22,371,NA,44351,NA,574,721,NA,371,2,legacy,Female,1024,2,48000,-16,experiment,8,even,droid,7734,NA,NA,76849,77225,12767,57694,NA,76851,67095,NA,NA,NA,NA,2370,NA,NA,77225,NA,57120,66373,NA,76851,Runtime for Android template,18,8538,21,0.25,no,1280,-0.574997636
86.36363636,86.36363636,20,407.2727273,407.2727273,#000000,no,1,droid,legacy,legacy,0,I confirm that my participation has been explained and consent to taking part in the experiment,relative,1,undefined,undefined,1,0,1,0,37,37,0,0,0,37,0,0,0,0,0,0,NA,0,37,0,0,0,NA,37,378,269,04/09/2018 11:15,A template containing a practice and an experimental phase,96,no,800,1280,15.72330189,yes,Exp_10_working.osexp,C:\Users\russe\Dropbox,no,mono,no,32,no,#ffffff,no,I confirm that my participation has been explained and consent to taking part in the experiment,NA,2,yes,800,oe,droid,21,15,8,C:/Users/russe/Dropbox/Exp_10/New folder/subject-8.csv,droid,Jazzy James,3.1.7,0,8,NA,1,NA,1,1,NA,8,422,NA,44351,NA,574,721,NA,422,2,legacy,Female,1024,2,48000,-16,experiment,8,even,droid,7734,NA,NA,77279,77705,12767,57694,NA,77280,67095,NA,NA,NA,NA,2370,NA,NA,77705,NA,57120,66373,NA,77280,Runtime for Android template,19,8960,22,0.125,no,1280,0.076290428
86.95652174,86.95652174,20,406.7826087,406.7826087,#000000,no,1,droid,legacy,legacy,0,I confirm that my participation has been explained and consent to taking part in the experiment,relative,1,undefined,undefined,1,0,1,0,38,38,0,0,0,38,0,0,0,0,0,0,NA,0,38,0,0,0,NA,38,544,324,04/09/2018 11:15,A template containing a practice and an experimental phase,96,no,800,1280,15.72330189,yes,Exp_10_working.osexp,C:\Users\russe\Dropbox,no,mono,no,32,no,#ffffff,no,I confirm that my participation has been explained and consent to taking part in the experiment,NA,1,yes,800,ef,droid,22,15,9,C:/Users/russe/Dropbox/Exp_10/New folder/subject-8.csv,droid,Jazzy James,3.1.7,0,9,NA,1,NA,1,1,NA,9,396,NA,44351,NA,574,721,NA,396,2,legacy,Female,1024,2,48000,-16,experiment,8,even,droid,7734,NA,NA,77768,78169,12767,57694,NA,77770,67095,NA,NA,NA,NA,2370,NA,NA,78169,NA,57120,66373,NA,77770,Runtime for Android template,20,9356,23,0.08333,no,1280,-0.255738781
87.5,87.5,20,408.25,408.25,#000000,no,1,droid,legacy,legacy,0,I confirm that my participation has been explained and consent to taking part in the experiment,relative,1,undefined,undefined,1,0,1,0,39,39,0,0,0,39,0,0,0,0,0,0,NA,0,39,0,0,0,NA,39,719,717,04/09/2018 11:15,A template containing a practice and an experimental phase,96,no,800,1280,15.72330189,yes,Exp_10_working.osexp,C:\Users\russe\Dropbox,no,mono,no,32,no,#ffffff,no,I confirm that my participation has been explained and consent to taking part in the experiment,NA,1,yes,800,fo,droid,23,15,22,C:/Users/russe/Dropbox/Exp_10/New folder/subject-8.csv,droid,Jazzy James,3.1.7,0,22,NA,1,NA,1,1,NA,22,442,NA,44351,NA,574,721,NA,442,2,legacy,Female,1024,2,48000,-16,experiment,8,even,droid,7734,NA,NA,78242,78687,12767,57694,NA,78244,67095,NA,NA,NA,NA,2370,NA,NA,78688,NA,57120,66373,NA,78244,Runtime for Android template,21,9798,24,0.33333,no,1280,0.331697511
88,88,20,408.72,408.72,#000000,no,1,droid,legacy,legacy,0,I confirm that my participation has been explained and consent to taking part in the experiment,relative,1,undefined,undefined,1,0,1,0,40,40,0,0,0,40,0,0,0,0,0,0,NA,0,40,0,0,0,NA,40,246,719,04/09/2018 11:15,A template containing a practice and an experimental phase,96,no,800,1280,15.72330189,yes,Exp_10_working.osexp,C:\Users\russe\Dropbox,no,mono,no,32,no,#ffffff,no,I confirm that my participation has been explained and consent to taking part in the experiment,NA,1,yes,800,om,droid,24,15,20,C:/Users/russe/Dropbox/Exp_10/New folder/subject-8.csv,droid,Jazzy James,3.1.7,0,20,NA,1,NA,1,1,NA,20,420,NA,44351,NA,574,721,NA,420,2,legacy,Female,1024,2,48000,-16,experiment,8,even,droid,7734,NA,NA,78744,79168,12767,57694,NA,78746,67095,NA,NA,NA,NA,2370,NA,NA,79168,NA,57120,66373,NA,78746,Runtime for Android template,22,10218,25,0.0625,no,1280,0.050749719
84.61538462,84.61538462,20,409.6538462,409.6538462,#000000,no,1,droid,legacy,legacy,0,I confirm that my participation has been explained and consent to taking part in the experiment,relative,0,undefined,undefined,0,0,1,0,41,41,0,0,0,41,0,0,0,0,0,0,NA,0,41,0,0,0,NA,41,520,217,04/09/2018 11:15,A template containing a practice and an experimental phase,96,no,800,1280,15.72330189,yes,Exp_10_working.osexp,C:\Users\russe\Dropbox,no,mono,no,32,no,#ffffff,no,I confirm that my participation has been explained and consent to taking part in the experiment,NA,1,yes,800,mb,droid,25,15,3,C:/Users/russe/Dropbox/Exp_10/New folder/subject-8.csv,droid,Jazzy James,3.1.7,0,9,NA,1,NA,1,1,NA,9,433,NA,44351,NA,574,721,NA,433,2,legacy,Female,1024,2,48000,-16,experiment,8,even,droid,7734,NA,NA,79227,79664,12767,57694,NA,79229,67095,NA,NA,NA,NA,2370,NA,NA,79664,NA,57120,66373,NA,79229,Runtime for Android template,22,10651,26,0.11111,no,1280,0.216764324
85.18518519,85.18518519,20,409.037037,409.037037,#000000,no,1,droid,legacy,legacy,0,I confirm that my participation has been explained and consent to taking part in the experiment,relative,1,undefined,undefined,1,0,1,0,42,42,0,0,0,42,0,0,0,0,0,0,NA,0,42,0,0,0,NA,42,949,293,04/09/2018 11:15,A template containing a practice and an experimental phase,96,no,800,1280,15.72330189,yes,Exp_10_working.osexp,C:\Users\russe\Dropbox,no,mono,no,32,no,#ffffff,no,I confirm that my participation has been explained and consent to taking part in the experiment,NA,1,yes,800,bh,droid,26,15,11,C:/Users/russe/Dropbox/Exp_10/New folder/subject-8.csv,droid,Jazzy James,3.1.7,0,11,NA,1,NA,1,1,NA,11,393,NA,44351,NA,574,721,NA,393,2,legacy,Female,1024,2,48000,-16,experiment,8,even,droid,7734,NA,NA,79739,80135,12767,57694,NA,79741,67095,NA,NA,NA,NA,2370,NA,NA,80135,NA,57120,66373,NA,79741,Runtime for Android template,23,11044,27,0.125,no,1280,-0.294049844
85.71428571,85.71428571,20,408.4642857,408.4642857,#000000,no,1,droid,legacy,legacy,0,I confirm that my participation has been explained and consent to taking part in the experiment,relative,1,undefined,undefined,1,0,1,0,43,43,0,0,0,43,0,0,0,0,0,0,NA,0,43,0,0,0,NA,43,866,341,04/09/2018 11:15,A template containing a practice and an experimental phase,96,no,800,1280,15.72330189,yes,Exp_10_working.osexp,C:\Users\russe\Dropbox,no,mono,no,32,no,#ffffff,no,I confirm that my participation has been explained and consent to taking part in the experiment,NA,1,yes,800,hh,droid,27,15,11,C:/Users/russe/Dropbox/Exp_10/New folder/subject-8.csv,droid,Jazzy James,3.1.7,0,11,NA,1,NA,1,1,NA,11,393,NA,44351,NA,574,721,NA,393,2,legacy,Female,1024,2,48000,-16,experiment,8,even,droid,7734,NA,NA,80203,80600,12767,57694,NA,80205,67095,NA,NA,NA,NA,2370,NA,NA,80600,NA,57120,66373,NA,80205,Runtime for Android template,24,11437,28,0.07692,no,1280,-0.294049844
86.20689655,86.20689655,20,408.6896552,408.6896552,#000000,no,1,droid,legacy,legacy,0,I confirm that my participation has been explained and consent to taking part in the experiment,relative,1,undefined,undefined,1,0,1,0,44,44,0,0,0,44,0,0,0,0,0,0,NA,0,44,0,0,0,NA,44,667,54,04/09/2018 11:15,A template containing a practice and an experimental phase,96,no,800,1280,15.72330189,yes,Exp_10_working.osexp,C:\Users\russe\Dropbox,no,mono,no,32,no,#ffffff,no,I confirm that my participation has been explained and consent to taking part in the experiment,NA,1,yes,800,hc,droid,28,15,4,C:/Users/russe/Dropbox/Exp_10/New folder/subject-8.csv,droid,Jazzy James,3.1.7,0,4,NA,1,NA,1,1,NA,4,415,NA,44351,NA,574,721,NA,415,2,legacy,Female,1024,2,48000,-16,experiment,8,even,droid,7734,NA,NA,80661,81080,12767,57694,NA,80663,67095,NA,NA,NA,NA,2370,NA,NA,81080,NA,57120,66373,NA,80663,Runtime for Android template,25,11852,29,0.07692,no,1280,-0.013102052
86.66666667,86.66666667,20,409.6,409.6,#000000,no,1,droid,legacy,legacy,0,I confirm that my participation has been explained and consent to taking part in the experiment,relative,1,undefined,undefined,1,0,1,0,45,45,0,0,0,45,0,0,0,0,0,0,NA,0,45,0,0,0,NA,45,257,314,04/09/2018 11:15,A template containing a practice and an experimental phase,96,no,800,1280,15.72330189,yes,Exp_10_working.osexp,C:\Users\russe\Dropbox,no,mono,no,32,no,#ffffff,no,I confirm that my participation has been explained and consent to taking part in the experiment,NA,1,yes,800,ce,droid,29,15,8,C:/Users/russe/Dropbox/Exp_10/New folder/subject-8.csv,droid,Jazzy James,3.1.7,0,8,NA,1,NA,1,1,NA,8,436,NA,44351,NA,574,721,NA,436,2,legacy,Female,1024,2,48000,-16,experiment,8,even,droid,7734,NA,NA,81144,81584,12767,57694,NA,81145,67095,NA,NA,NA,NA,2370,NA,NA,81584,NA,57120,66373,NA,81146,Runtime for Android template,26,12288,30,0.1,no,1280,0.255075386
87.09677419,87.09677419,20,409.8064516,409.8064516,#000000,no,1,droid,legacy,legacy,0,I confirm that my participation has been explained and consent to taking part in the experiment,relative,1,undefined,undefined,1,0,1,0,46,46,0,0,0,46,0,0,0,0,0,0,NA,0,46,0,0,0,NA,46,729,101,04/09/2018 11:15,A template containing a practice and an experimental phase,96,no,800,1280,15.72330189,yes,Exp_10_working.osexp,C:\Users\russe\Dropbox,no,mono,no,32,no,#ffffff,no,I confirm that my participation has been explained and consent to taking part in the experiment,NA,1,yes,800,ec,droid,30,15,4,C:/Users/russe/Dropbox/Exp_10/New folder/subject-8.csv,droid,Jazzy James,3.1.7,0,4,NA,1,NA,1,1,NA,4,416,NA,44351,NA,574,721,NA,416,2,legacy,Female,1024,2,48000,-16,experiment,8,even,droid,7734,NA,NA,81637,82056,12767,57694,NA,81638,67095,NA,NA,NA,NA,2370,NA,NA,82056,NA,57120,66373,NA,81638,Runtime for Android template,27,12704,31,0.08333,no,1280,-0.000331698
87.5,87.5,20,412.09375,412.09375,#000000,no,1,droid,legacy,legacy,0,I confirm that my participation has been explained and consent to taking part in the experiment,relative,1,undefined,undefined,1,0,1,0,47,47,0,0,0,47,0,0,0,0,0,0,NA,0,47,0,0,0,NA,47,680,18,04/09/2018 11:15,A template containing a practice and an experimental phase,96,no,800,1280,15.72330189,yes,Exp_10_working.osexp,C:\Users\russe\Dropbox,no,mono,no,32,no,#ffffff,no,I confirm that my participation has been explained and consent to taking part in the experiment,NA,1,yes,800,cc,droid,31,15,4,C:/Users/russe/Dropbox/Exp_10/New folder/subject-8.csv,droid,Jazzy James,3.1.7,0,4,NA,1,NA,1,1,NA,4,483,NA,44351,NA,574,721,NA,483,2,legacy,Female,1024,2,48000,-16,experiment,8,even,droid,7734,NA,NA,82113,82599,12767,57694,NA,82115,67095,NA,NA,NA,NA,2370,NA,NA,82599,NA,57120,66373,NA,82115,Runtime for Android template,28,13187,32,0.1,no,1280,0.855282033
87.87878788,87.87878788,20,411.9393939,411.9393939,#000000,no,1,droid,legacy,legacy,0,I confirm that my participation has been explained and consent to taking part in the experiment,relative,1,undefined,undefined,1,0,1,0,48,48,0,0,0,48,0,0,0,0,0,0,NA,0,48,0,0,0,NA,48,899,324,04/09/2018 11:15,A template containing a practice and an experimental phase,96,no,800,1280,15.72330189,yes,Exp_10_working.osexp,C:\Users\russe\Dropbox,no,mono,no,32,no,#ffffff,no,I confirm that my participation has been explained and consent to taking part in the experiment,NA,1,yes,800,ch,droid,32,15,11,C:/Users/russe/Dropbox/Exp_10/New folder/subject-8.csv,droid,Jazzy James,3.1.7,0,11,NA,1,NA,1,1,NA,11,407,NA,44351,NA,574,721,NA,407,2,legacy,Female,1024,2,48000,-16,experiment,8,even,droid,7734,NA,NA,82653,83064,12767,57694,NA,82655,67095,NA,NA,NA,NA,2370,NA,NA,83064,NA,57120,66373,NA,82655,Runtime for Android template,29,13594,33,0.1,no,1280,-0.115264885
88.23529412,88.23529412,20,412.8529412,412.8529412,#000000,no,1,droid,legacy,legacy,0,I confirm that my participation has been explained and consent to taking part in the experiment,relative,1,undefined,undefined,1,0,1,0,49,49,0,0,0,49,0,0,0,0,0,0,NA,0,49,0,0,0,NA,49,308,238,04/09/2018 11:15,A template containing a practice and an experimental phase,96,no,800,1280,15.72330189,yes,Exp_10_working.osexp,C:\Users\russe\Dropbox,no,mono,no,32,no,#ffffff,no,I confirm that my participation has been explained and consent to taking part in the experiment,NA,1,yes,800,he,droid,33,15,8,C:/Users/russe/Dropbox/Exp_10/New folder/subject-8.csv,droid,Jazzy James,3.1.7,0,8,NA,1,NA,1,1,NA,8,443,NA,44351,NA,574,721,NA,443,2,legacy,Female,1024,2,48000,-16,experiment,8,even,droid,7734,NA,NA,83130,83576,12767,57694,NA,83131,67095,NA,NA,NA,NA,2370,NA,NA,83576,NA,57120,66373,NA,83131,Runtime for Android template,30,14037,34,0.07692,no,1280,0.344467865
88.57142857,88.57142857,20,413.5714286,413.5714286,#000000,no,1,droid,legacy,legacy,0,I confirm that my participation has been explained and consent to taking part in the experiment,relative,1,undefined,undefined,1,0,1,0,50,50,0,0,0,50,0,0,0,0,0,0,NA,0,50,0,0,0,NA,50,929,689,04/09/2018 11:15,A template containing a practice and an experimental phase,96,no,800,1280,15.72330189,yes,Exp_10_working.osexp,C:\Users\russe\Dropbox,no,mono,no,32,no,#ffffff,no,I confirm that my participation has been explained and consent to taking part in the experiment,NA,1,yes,800,ep,droid,34,15,23,C:/Users/russe/Dropbox/Exp_10/New folder/subject-8.csv,droid,Jazzy James,3.1.7,0,23,NA,1,NA,1,1,NA,23,438,NA,44351,NA,574,721,NA,438,2,legacy,Female,1024,2,48000,-16,experiment,8,even,droid,7734,NA,NA,83630,84072,12767,57694,NA,83632,67095,NA,NA,NA,NA,2370,NA,NA,84072,NA,57120,66373,NA,83632,Runtime for Android template,31,14475,35,0.08333,no,1280,0.280616094
88.88888889,88.88888889,20,414.1666667,414.1666667,#000000,no,1,droid,legacy,legacy,0,I confirm that my participation has been explained and consent to taking part in the experiment,relative,1,undefined,undefined,1,0,1,0,51,51,0,0,0,51,0,0,0,0,0,0,NA,0,51,0,0,0,NA,51,526,214,04/09/2018 11:15,A template containing a practice and an experimental phase,96,no,800,1280,15.72330189,yes,Exp_10_working.osexp,C:\Users\russe\Dropbox,no,mono,no,32,no,#ffffff,no,I confirm that my participation has been explained and consent to taking part in the experiment,NA,1,yes,800,pf,droid,35,15,9,C:/Users/russe/Dropbox/Exp_10/New folder/subject-8.csv,droid,Jazzy James,3.1.7,0,9,NA,1,NA,1,1,NA,9,435,NA,44351,NA,574,721,NA,435,2,legacy,Female,1024,2,48000,-16,experiment,8,even,droid,7734,NA,NA,84129,84568,12767,57694,NA,84131,67095,NA,NA,NA,NA,2370,NA,NA,84568,NA,57120,66373,NA,84131,Runtime for Android template,32,14910,36,0.2,no,1280,0.242305032
89.18918919,89.18918919,20,415.2162162,415.2162162,#000000,no,1,droid,legacy,legacy,0,I confirm that my participation has been explained and consent to taking part in the experiment,relative,1,undefined,undefined,1,0,1,0,52,52,0,0,0,52,0,0,0,0,0,0,NA,0,52,0,0,0,NA,52,315,320,04/09/2018 11:15,A template containing a practice and an experimental phase,96,no,800,1280,15.72330189,yes,Exp_10_working.osexp,C:\Users\russe\Dropbox,no,mono,no,32,no,#ffffff,no,I confirm that my participation has been explained and consent to taking part in the experiment,NA,1,yes,800,fe,droid,36,15,8,C:/Users/russe/Dropbox/Exp_10/New folder/subject-8.csv,droid,Jazzy James,3.1.7,0,8,NA,1,NA,1,1,NA,8,453,NA,44351,NA,574,721,NA,453,2,legacy,Female,1024,2,48000,-16,experiment,8,even,droid,7734,NA,NA,84622,85080,12767,57694,NA,84624,67095,NA,NA,NA,NA,2370,NA,NA,85080,NA,57120,66373,NA,84624,Runtime for Android template,33,15363,37,0.33333,no,1280,0.472171407
89.47368421,89.47368421,20,415.2631579,415.2631579,#000000,no,1,droid,legacy,legacy,0,I confirm that my participation has been explained and consent to taking part in the experiment,relative,1,undefined,undefined,1,0,1,0,53,53,0,0,0,53,0,0,0,0,0,0,NA,0,53,0,0,0,NA,53,920,381,04/09/2018 11:15,A template containing a practice and an experimental phase,96,no,800,1280,15.72330189,yes,Exp_10_working.osexp,C:\Users\russe\Dropbox,no,mono,no,32,no,#ffffff,no,I confirm that my participation has been explained and consent to taking part in the experiment,NA,1,yes,800,eh,droid,37,15,11,C:/Users/russe/Dropbox/Exp_10/New folder/subject-8.csv,droid,Jazzy James,3.1.7,0,11,NA,1,NA,1,1,NA,11,417,NA,44351,NA,574,721,NA,417,2,legacy,Female,1024,2,48000,-16,experiment,8,even,droid,7734,NA,NA,85164,85584,12767,57694,NA,85165,67095,NA,NA,NA,NA,2370,NA,NA,85584,NA,57120,66373,NA,85165,Runtime for Android template,34,15780,38,0.08333,no,1280,0.012438657
89.74358974,89.74358974,20,415.8461538,415.8461538,#000000,no,1,droid,legacy,legacy,0,I confirm that my participation has been explained and consent to taking part in the experiment,relative,1,undefined,undefined,1,0,1,0,54,54,0,0,0,54,0,0,0,0,0,0,NA,0,54,0,0,0,NA,54,372,707,04/09/2018 11:15,A template containing a practice and an experimental phase,96,no,800,1280,15.72330189,yes,Exp_10_working.osexp,C:\Users\russe\Dropbox,no,mono,no,32,no,#ffffff,no,I confirm that my participation has been explained and consent to taking part in the experiment,NA,1,yes,800,hm,droid,38,15,20,C:/Users/russe/Dropbox/Exp_10/New folder/subject-8.csv,droid,Jazzy James,3.1.7,0,20,NA,1,NA,1,1,NA,20,438,NA,44351,NA,574,721,NA,438,2,legacy,Female,1024,2,48000,-16,experiment,8,even,droid,7734,NA,NA,85647,86088,12767,57694,NA,85648,67095,NA,NA,NA,NA,2370,NA,NA,86088,NA,57120,66373,NA,85648,Runtime for Android template,35,16218,39,0.07692,no,1280,0.280616094
90,90,20,415.825,415.825,#000000,no,1,droid,legacy,legacy,0,I confirm that my participation has been explained and consent to taking part in the experiment,relative,1,undefined,undefined,1,0,1,0,55,55,0,0,0,55,0,0,0,0,0,0,NA,0,55,0,0,0,NA,55,522,250,04/09/2018 11:15,A template containing a practice and an experimental phase,96,no,800,1280,15.72330189,yes,Exp_10_working.osexp,C:\Users\russe\Dropbox,no,mono,no,32,no,#ffffff,no,I confirm that my participation has been explained and consent to taking part in the experiment,NA,1,yes,800,mf,droid,39,15,9,C:/Users/russe/Dropbox/Exp_10/New folder/subject-8.csv,droid,Jazzy James,3.1.7,0,9,NA,1,NA,1,1,NA,9,415,NA,44351,NA,574,721,NA,415,2,legacy,Female,1024,2,48000,-16,experiment,8,even,droid,7734,NA,NA,86141,86560,12767,57694,NA,86143,67095,NA,NA,NA,NA,2370,NA,NA,86560,NA,57120,66373,NA,86143,Runtime for Android template,36,16633,40,0.11111,no,1280,-0.013102052
90.24390244,90.24390244,20,424.5365854,424.5365854,#000000,no,1,droid,legacy,legacy,0,I confirm that my participation has been explained and consent to taking part in the experiment,relative,1,undefined,undefined,1,0,1,0,56,56,0,0,0,56,0,0,0,0,0,0,NA,0,56,0,0,0,NA,56,391,697,04/09/2018 11:15,A template containing a practice and an experimental phase,96,no,800,1280,15.72330189,yes,Exp_10_working.osexp,C:\Users\russe\Dropbox,no,mono,no,32,no,#ffffff,no,I confirm that my participation has been explained and consent to taking part in the experiment,NA,1,yes,800,fm,droid,40,15,20,C:/Users/russe/Dropbox/Exp_10/New folder/subject-8.csv,droid,Jazzy James,3.1.7,0,20,NA,1,NA,1,1,NA,20,773,NA,44351,NA,574,721,NA,773,2,legacy,Female,1024,2,48000,-16,experiment,8,even,droid,7734,NA,NA,86607,87388,12767,57694,NA,86609,67095,NA,NA,NA,NA,2370,NA,NA,87388,NA,57120,66373,NA,86609,Runtime for Android template,37,17406,41,0.33333,no,1280,4.558684745
88.0952381,88.0952381,20,422.9285714,422.9285714,#000000,no,1,droid,legacy,legacy,0,I confirm that my participation has been explained and consent to taking part in the experiment,relative,0,undefined,undefined,0,0,1,0,57,57,0,0,0,57,0,0,0,0,0,0,NA,0,57,0,0,0,NA,57,701,688,04/09/2018 11:15,A template containing a practice and an experimental phase,96,no,800,1280,15.72330189,yes,Exp_10_working.osexp,C:\Users\russe\Dropbox,no,mono,no,32,no,#ffffff,no,I confirm that my participation has been explained and consent to taking part in the experiment,NA,1,yes,800,mn,droid,41,15,21,C:/Users/russe/Dropbox/Exp_10/New folder/subject-8.csv,droid,Jazzy James,3.1.7,0,22,NA,1,NA,1,1,NA,22,357,NA,44351,NA,574,721,NA,357,2,legacy,Female,1024,2,48000,-16,experiment,8,even,droid,7734,NA,NA,87534,87895,12767,57694,NA,87536,67095,NA,NA,NA,NA,2370,NA,NA,87895,NA,57120,66373,NA,87536,Runtime for Android template,37,17763,42,0.11111,no,1280,-0.753782594
88.37209302,88.37209302,20,423.5813953,423.5813953,#000000,no,1,droid,legacy,legacy,0,I confirm that my participation has been explained and consent to taking part in the experiment,relative,1,undefined,undefined,1,0,1,0,58,58,0,0,0,58,0,0,0,0,0,0,NA,0,58,0,0,0,NA,58,955,301,04/09/2018 11:15,A template containing a practice and an experimental phase,96,no,800,1280,15.72330189,yes,Exp_10_working.osexp,C:\Users\russe\Dropbox,no,mono,no,32,no,#ffffff,no,I confirm that my participation has been explained and consent to taking part in the experiment,NA,4,yes,800,nh,droid,42,15,11,C:/Users/russe/Dropbox/Exp_10/New folder/subject-8.csv,droid,Jazzy James,3.1.7,0,11,NA,1,NA,1,1,NA,11,451,NA,44351,NA,574,721,NA,451,2,legacy,Female,1024,2,48000,-16,experiment,8,even,droid,7734,NA,NA,87953,88408,12767,57694,NA,87955,67095,NA,NA,NA,NA,2370,NA,NA,88408,NA,57120,66373,NA,87955,Runtime for Android template,38,18214,43,0.8,no,1280,0.446630699
88.63636364,88.63636364,20,422.7272727,422.7272727,#000000,no,1,droid,legacy,legacy,0,I confirm that my participation has been explained and consent to taking part in the experiment,relative,1,undefined,undefined,1,0,1,0,59,59,0,0,0,59,0,0,0,0,0,0,NA,0,59,0,0,0,NA,59,935,549,04/09/2018 11:15,A template containing a practice and an experimental phase,96,no,800,1280,15.72330189,yes,Exp_10_working.osexp,C:\Users\russe\Dropbox,no,mono,no,32,no,#ffffff,no,I confirm that my participation has been explained and consent to taking part in the experiment,NA,1,yes,800,hl,droid,43,15,17,C:/Users/russe/Dropbox/Exp_10/New folder/subject-8.csv,droid,Jazzy James,3.1.7,0,17,NA,1,NA,1,1,NA,17,386,NA,44351,NA,574,721,NA,386,2,legacy,Female,1024,2,48000,-16,experiment,8,even,droid,7734,NA,NA,88506,88896,12767,57694,NA,88508,67095,NA,NA,NA,NA,2370,NA,NA,88896,NA,57120,66373,NA,88508,Runtime for Android template,39,18600,44,0.07692,no,1280,-0.383442323
88.88888889,88.88888889,20,422.3777778,422.3777778,#000000,no,1,droid,legacy,legacy,0,I confirm that my participation has been explained and consent to taking part in the experiment,relative,1,undefined,undefined,1,0,1,0,60,60,0,0,0,60,0,0,0,0,0,0,NA,0,60,0,0,0,NA,60,743,464,04/09/2018 11:15,A template containing a practice and an experimental phase,96,no,800,1280,15.72330189,yes,Exp_10_working.osexp,C:\Users\russe\Dropbox,no,mono,no,32,no,#ffffff,no,I confirm that my participation has been explained and consent to taking part in the experiment,NA,1,yes,800,lk,droid,44,15,16,C:/Users/russe/Dropbox/Exp_10/New folder/subject-8.csv,droid,Jazzy James,3.1.7,0,16,NA,1,NA,1,1,NA,16,407,NA,44351,NA,574,721,NA,407,2,legacy,Female,1024,2,48000,-16,experiment,8,even,droid,7734,NA,NA,88997,89409,12767,57694,NA,88999,67095,NA,NA,NA,NA,2370,NA,NA,89409,NA,57120,66373,NA,88999,Runtime for Android template,40,19007,45,0.25,no,1280,-0.115264885
89.13043478,89.13043478,20,424.0217391,424.0217391,#000000,no,1,droid,legacy,legacy,0,I confirm that my participation has been explained and consent to taking part in the experiment,relative,1,undefined,undefined,1,0,1,0,61,61,0,0,0,61,0,0,0,0,0,0,NA,0,61,0,0,0,NA,61,790,526,04/09/2018 11:15,A template containing a practice and an experimental phase,96,no,800,1280,15.72330189,yes,Exp_10_working.osexp,C:\Users\russe\Dropbox,no,mono,no,32,no,#ffffff,no,I confirm that my participation has been explained and consent to taking part in the experiment,NA,1,yes,800,kk,droid,45,15,16,C:/Users/russe/Dropbox/Exp_10/New folder/subject-8.csv,droid,Jazzy James,3.1.7,0,16,NA,1,NA,1,1,NA,16,498,NA,44351,NA,574,721,NA,498,2,legacy,Female,1024,2,48000,-16,experiment,8,even,droid,7734,NA,NA,89467,89968,12767,57694,NA,89468,67095,NA,NA,NA,NA,2370,NA,NA,89968,NA,57120,66373,NA,89468,Runtime for Android template,41,19505,46,0.125,no,1280,1.046837345
89.36170213,89.36170213,20,423.8297872,423.8297872,#000000,no,1,droid,legacy,legacy,0,I confirm that my participation has been explained and consent to taking part in the experiment,relative,1,undefined,undefined,1,0,1,0,62,62,0,0,0,62,0,0,0,0,0,0,NA,0,62,0,0,0,NA,62,972,362,04/09/2018 11:15,A template containing a practice and an experimental phase,96,no,800,1280,15.72330189,yes,Exp_10_working.osexp,C:\Users\russe\Dropbox,no,mono,no,32,no,#ffffff,no,I confirm that my participation has been explained and consent to taking part in the experiment,NA,2,yes,800,kh,droid,46,15,11,C:/Users/russe/Dropbox/Exp_10/New folder/subject-8.csv,droid,Jazzy James,3.1.7,0,11,NA,1,NA,1,1,NA,11,415,NA,44351,NA,574,721,NA,415,2,legacy,Female,1024,2,48000,-16,experiment,8,even,droid,7734,NA,NA,90022,90441,12767,57694,NA,90023,67095,NA,NA,NA,NA,2370,NA,NA,90441,NA,57120,66373,NA,90023,Runtime for Android template,42,19920,47,0.25,no,1280,-0.013102052
89.58333333,89.58333333,20,425.625,425.625,#000000,no,1,droid,legacy,legacy,0,I confirm that my participation has been explained and consent to taking part in the experiment,relative,1,undefined,undefined,1,0,1,0,63,63,0,0,0,63,0,0,0,0,0,0,NA,0,63,0,0,0,NA,63,794,119,04/09/2018 11:15,A template containing a practice and an experimental phase,96,no,800,1280,15.72330189,yes,Exp_10_working.osexp,C:\Users\russe\Dropbox,no,mono,no,32,no,#ffffff,no,I confirm that my participation has been explained and consent to taking part in the experiment,NA,1,yes,800,hd,droid,47,15,4,C:/Users/russe/Dropbox/Exp_10/New folder/subject-8.csv,droid,Jazzy James,3.1.7,0,4,NA,1,NA,1,1,NA,4,510,NA,44351,NA,574,721,NA,510,2,legacy,Female,1024,2,48000,-16,experiment,8,even,droid,7734,NA,NA,90518,91032,12767,57694,NA,90519,67095,NA,NA,NA,NA,2370,NA,NA,91032,NA,57120,66373,NA,90520,Runtime for Android template,43,20430,48,0.07692,no,1280,1.200081595
89.79591837,89.79591837,20,425.1428571,425.1428571,#000000,no,1,droid,legacy,legacy,0,I confirm that my participation has been explained and consent to taking part in the experiment,relative,1,undefined,undefined,1,0,1,0,64,64,0,0,0,64,0,0,0,0,0,0,NA,0,64,0,0,0,NA,64,734,700,04/09/2018 11:15,A template containing a practice and an experimental phase,96,no,800,1280,15.72330189,yes,Exp_10_working.osexp,C:\Users\russe\Dropbox,no,mono,no,32,no,#ffffff,no,I confirm that my participation has been explained and consent to taking part in the experiment,NA,1,yes,800,do,droid,48,15,22,C:/Users/russe/Dropbox/Exp_10/New folder/subject-8.csv,droid,Jazzy James,3.1.7,0,22,NA,1,NA,1,1,NA,22,402,NA,44351,NA,574,721,NA,402,2,legacy,Female,1024,2,48000,-16,experiment,8,even,droid,7734,NA,NA,91114,91520,12767,57694,NA,91116,67095,NA,NA,NA,NA,2370,NA,NA,91520,NA,57120,66373,NA,91116,Runtime for Android template,44,20832,49,0.33333,no,1280,-0.179116656
90,90,20,424.72,424.72,#000000,no,1,droid,legacy,legacy,0,I confirm that my participation has been explained and consent to taking part in the experiment,relative,1,undefined,undefined,1,0,1,0,65,65,0,0,0,65,0,0,0,0,0,0,NA,0,65,0,0,0,NA,65,558,742,04/09/2018 11:15,A template containing a practice and an experimental phase,96,no,800,1280,15.72330189,yes,Exp_10_working.osexp,C:\Users\russe\Dropbox,no,mono,no,32,no,#ffffff,no,I confirm that my participation has been explained and consent to taking part in the experiment,NA,1,yes,800,on,droid,49,15,21,C:/Users/russe/Dropbox/Exp_10/New folder/subject-8.csv,droid,Jazzy James,3.1.7,0,21,NA,1,NA,1,1,NA,21,404,NA,44351,NA,574,721,NA,404,2,legacy,Female,1024,2,48000,-16,experiment,8,even,droid,7734,NA,NA,91576,91984,12767,57694,NA,91578,67095,NA,NA,NA,NA,2370,NA,NA,91984,NA,57120,66373,NA,91578,Runtime for Android template,45,21236,50,0.0625,no,1280,-0.153575948
90.19607843,90.19607843,20,423.627451,423.627451,#000000,no,1,droid,legacy,legacy,0,I confirm that my participation has been explained and consent to taking part in the experiment,relative,1,undefined,undefined,1,0,1,0,66,66,0,0,0,66,0,0,0,0,0,0,NA,0,66,0,0,0,NA,66,665,523,04/09/2018 11:15,A template containing a practice and an experimental phase,96,no,800,1280,15.72330189,yes,Exp_10_working.osexp,C:\Users\russe\Dropbox,no,mono,no,32,no,#ffffff,no,I confirm that my participation has been explained and consent to taking part in the experiment,NA,1,yes,800,nk,droid,50,15,16,C:/Users/russe/Dropbox/Exp_10/New folder/subject-8.csv,droid,Jazzy James,3.1.7,0,16,NA,1,NA,1,1,NA,16,369,NA,44351,NA,574,721,NA,369,2,legacy,Female,1024,2,48000,-16,experiment,8,even,droid,7734,NA,NA,92070,92448,12767,57694,NA,92076,67095,NA,NA,NA,NA,2370,NA,NA,92448,NA,57120,66373,NA,92077,Runtime for Android template,46,21605,51,0.2,no,1280,-0.600538344
88.46153846,88.46153846,20,423.3653846,423.3653846,#000000,no,1,droid,legacy,legacy,0,I confirm that my participation has been explained and consent to taking part in the experiment,relative,0,undefined,undefined,0,0,1,0,67,67,0,0,0,67,0,0,0,0,0,0,NA,0,67,0,0,0,NA,67,165,238,04/09/2018 11:15,A template containing a practice and an experimental phase,96,no,800,1280,15.72330189,yes,Exp_10_working.osexp,C:\Users\russe\Dropbox,no,mono,no,32,no,#ffffff,no,I confirm that my participation has been explained and consent to taking part in the experiment,NA,1,yes,800,ke,droid,51,15,8,C:/Users/russe/Dropbox/Exp_10/New folder/subject-8.csv,droid,Jazzy James,3.1.7,0,7,NA,1,NA,1,1,NA,7,410,NA,44351,NA,574,721,NA,410,2,legacy,Female,1024,2,48000,-16,experiment,8,even,droid,7734,NA,NA,92538,92952,12767,57694,NA,92540,67095,NA,NA,NA,NA,2370,NA,NA,92952,NA,57120,66373,NA,92540,Runtime for Android template,46,22015,52,0.125,no,1280,-0.076953823
88.67924528,88.67924528,20,423.4150943,423.4150943,#000000,no,1,droid,legacy,legacy,0,I confirm that my participation has been explained and consent to taking part in the experiment,relative,1,undefined,undefined,1,0,1,0,68,68,0,0,0,68,0,0,0,0,0,0,NA,0,68,0,0,0,NA,68,722,768,04/09/2018 11:15,A template containing a practice and an experimental phase,96,no,800,1280,15.72330189,yes,Exp_10_working.osexp,C:\Users\russe\Dropbox,no,mono,no,32,no,#ffffff,no,I confirm that my participation has been explained and consent to taking part in the experiment,NA,1,yes,800,eo,droid,52,15,22,C:/Users/russe/Dropbox/Exp_10/New folder/subject-8.csv,droid,Jazzy James,3.1.7,0,22,NA,1,NA,1,1,NA,22,426,NA,44351,NA,574,721,NA,426,2,legacy,Female,1024,2,48000,-16,experiment,8,even,droid,7734,NA,NA,93002,93432,12767,57694,NA,93004,67095,NA,NA,NA,NA,2370,NA,NA,93432,NA,57120,66373,NA,93004,Runtime for Android template,47,22441,53,0.08333,no,1280,0.127371844
88.88888889,88.88888889,20,431.1666667,431.1666667,#000000,no,1,droid,legacy,legacy,0,I confirm that my participation has been explained and consent to taking part in the experiment,relative,1,undefined,undefined,1,0,1,0,69,69,0,0,0,69,0,0,0,0,0,0,NA,0,69,0,0,0,NA,69,294,63,04/09/2018 11:15,A template containing a practice and an experimental phase,96,no,800,1280,15.72330189,yes,Exp_10_working.osexp,C:\Users\russe\Dropbox,no,mono,no,32,no,#ffffff,no,I confirm that my participation has been explained and consent to taking part in the experiment,NA,4,yes,800,oa,droid,53,15,2,C:/Users/russe/Dropbox/Exp_10/New folder/subject-8.csv,droid,Jazzy James,3.1.7,0,2,NA,1,NA,1,1,NA,2,842,NA,44351,NA,574,721,NA,842,2,legacy,Female,1024,2,48000,-16,experiment,8,even,droid,7734,NA,NA,93499,94350,12767,57694,NA,93500,67095,NA,NA,NA,NA,2370,NA,NA,94350,NA,57120,66373,NA,93500,Runtime for Android template,48,23283,54,0.25,no,1280,5.439839183
89.09090909,89.09090909,20,430.1818182,430.1818182,#000000,no,1,droid,legacy,legacy,0,I confirm that my participation has been explained and consent to taking part in the experiment,relative,1,undefined,undefined,1,0,1,0,70,70,0,0,0,70,0,0,0,0,0,0,NA,0,70,0,0,0,NA,70,316,290,04/09/2018 11:15,A template containing a practice and an experimental phase,96,no,800,1280,15.72330189,yes,Exp_10_working.osexp,C:\Users\russe\Dropbox,no,mono,no,32,no,#ffffff,no,I confirm that my participation has been explained and consent to taking part in the experiment,NA,1,yes,800,ae,droid,54,15,8,C:/Users/russe/Dropbox/Exp_10/New folder/subject-8.csv,droid,Jazzy James,3.1.7,0,8,NA,1,NA,1,1,NA,8,377,NA,44351,NA,574,721,NA,377,2,legacy,Female,1024,2,48000,-16,experiment,8,even,droid,7734,NA,NA,94411,94792,12767,57694,NA,94412,67095,NA,NA,NA,NA,2370,NA,NA,94792,NA,57120,66373,NA,94413,Runtime for Android template,49,23660,55,0.16667,no,1280,-0.498375511
89.28571429,89.28571429,20,430.8571429,430.8571429,#000000,no,1,droid,legacy,legacy,0,I confirm that my participation has been explained and consent to taking part in the experiment,relative,1,undefined,undefined,1,0,1,0,71,71,0,0,0,71,0,0,0,0,0,0,NA,0,71,0,0,0,NA,71,302,747,04/09/2018 11:15,A template containing a practice and an experimental phase,96,no,800,1280,15.72330189,yes,Exp_10_working.osexp,C:\Users\russe\Dropbox,no,mono,no,32,no,#ffffff,no,I confirm that my participation has been explained and consent to taking part in the experiment,NA,1,yes,800,em,droid,55,15,20,C:/Users/russe/Dropbox/Exp_10/New folder/subject-8.csv,droid,Jazzy James,3.1.7,0,20,NA,1,NA,1,1,NA,20,468,NA,44351,NA,574,721,NA,468,2,legacy,Female,1024,2,48000,-16,experiment,8,even,droid,7734,NA,NA,94881,95352,12767,57694,NA,94882,67095,NA,NA,NA,NA,2370,NA,NA,95352,NA,57120,66373,NA,94882,Runtime for Android template,50,24128,56,0.08333,no,1280,0.66372672
89.47368421,89.47368421,20,430.4736842,430.4736842,#000000,no,1,droid,legacy,legacy,0,I confirm that my participation has been explained and consent to taking part in the experiment,relative,1,undefined,undefined,1,0,1,0,72,72,0,0,0,72,0,0,0,0,0,0,NA,0,72,0,0,0,NA,72,755,754,04/09/2018 11:15,A template containing a practice and an experimental phase,96,no,800,1280,15.72330189,yes,Exp_10_working.osexp,C:\Users\russe\Dropbox,no,mono,no,32,no,#ffffff,no,I confirm that my participation has been explained and consent to taking part in the experiment,NA,2,yes,800,mo,droid,56,15,22,C:/Users/russe/Dropbox/Exp_10/New folder/subject-8.csv,droid,Jazzy James,3.1.7,0,22,NA,1,NA,1,1,NA,22,409,NA,44351,NA,574,721,NA,409,2,legacy,Female,1024,2,48000,-16,experiment,8,even,droid,7734,NA,NA,95411,95824,12767,57694,NA,95413,67095,NA,NA,NA,NA,2370,NA,NA,95824,NA,57120,66373,NA,95413,Runtime for Android template,51,24537,57,0.22222,no,1280,-0.089724177
89.65517241,89.65517241,20,430.5517241,430.5517241,#000000,no,1,droid,legacy,legacy,0,I confirm that my participation has been explained and consent to taking part in the experiment,relative,1,undefined,undefined,1,0,1,0,73,73,0,0,0,73,0,0,0,0,0,0,NA,0,73,0,0,0,NA,73,659,644,04/09/2018 11:15,A template containing a practice and an experimental phase,96,no,800,1280,15.72330189,yes,Exp_10_working.osexp,C:\Users\russe\Dropbox,no,mono,no,32,no,#ffffff,no,I confirm that my participation has been explained and consent to taking part in the experiment,NA,1,yes,800,oo,droid,57,15,22,C:/Users/russe/Dropbox/Exp_10/New folder/subject-8.csv,droid,Jazzy James,3.1.7,0,22,NA,1,NA,1,1,NA,22,435,NA,44351,NA,574,721,NA,435,2,legacy,Female,1024,2,48000,-16,experiment,8,even,droid,7734,NA,NA,95881,96320,12767,57694,NA,95883,67095,NA,NA,NA,NA,2370,NA,NA,96321,NA,57120,66373,NA,95883,Runtime for Android template,52,24972,58,0.0625,no,1280,0.242305032
89.83050847,89.83050847,20,430.1016949,430.1016949,#000000,no,1,droid,legacy,legacy,0,I confirm that my participation has been explained and consent to taking part in the experiment,relative,1,undefined,undefined,1,0,1,0,74,74,0,0,0,74,0,0,0,0,0,0,NA,0,74,0,0,0,NA,74,992,710,04/09/2018 11:15,A template containing a practice and an experimental phase,96,no,800,1280,15.72330189,yes,Exp_10_working.osexp,C:\Users\russe\Dropbox,no,mono,no,32,no,#ffffff,no,I confirm that my participation has been explained and consent to taking part in the experiment,NA,1,yes,800,op,droid,58,15,23,C:/Users/russe/Dropbox/Exp_10/New folder/subject-8.csv,droid,Jazzy James,3.1.7,0,23,NA,1,NA,1,1,NA,23,404,NA,44351,NA,574,721,NA,404,2,legacy,Female,1024,2,48000,-16,experiment,8,even,droid,7734,NA,NA,96432,96840,12767,57694,NA,96434,67095,NA,NA,NA,NA,2370,NA,NA,96840,NA,57120,66373,NA,96434,Runtime for Android template,53,25376,59,0.0625,no,1280,-0.153575948
90,90,20,429.7,429.7,#000000,no,1,droid,legacy,legacy,0,I confirm that my participation has been explained and consent to taking part in the experiment,relative,1,undefined,undefined,1,0,1,0,75,75,0,0,0,75,0,0,0,0,0,0,NA,0,75,0,0,0,NA,75,704,272,04/09/2018 11:15,A template containing a practice and an experimental phase,96,no,800,1280,15.72330189,yes,Exp_10_working.osexp,C:\Users\russe\Dropbox,no,mono,no,32,no,#ffffff,no,I confirm that my participation has been explained and consent to taking part in the experiment,NA,1,yes,800,pg,droid,59,15,10,C:/Users/russe/Dropbox/Exp_10/New folder/subject-8.csv,droid,Jazzy James,3.1.7,0,10,NA,1,NA,1,1,NA,10,406,NA,44351,NA,574,721,NA,406,2,legacy,Female,1024,2,48000,-16,experiment,8,even,droid,7734,NA,NA,96894,97304,12767,57694,NA,96896,67095,NA,NA,NA,NA,2370,NA,NA,97304,NA,57120,66373,NA,96896,Runtime for Android template,54,25782,60,0.2,no,1280,-0.128035239
88.52459016,88.52459016,20,429.7377049,429.7377049,#000000,no,1,droid,legacy,legacy,0,I confirm that my participation has been explained and consent to taking part in the experiment,relative,0,undefined,undefined,0,0,1,0,76,76,0,0,0,76,0,0,0,0,0,0,NA,0,76,0,0,0,NA,76,442,683,04/09/2018 11:15,A template containing a practice and an experimental phase,96,no,800,1280,15.72330189,yes,Exp_10_working.osexp,C:\Users\russe\Dropbox,no,mono,no,32,no,#ffffff,no,I confirm that my participation has been explained and consent to taking part in the experiment,NA,1,yes,800,gm,droid,60,15,20,C:/Users/russe/Dropbox/Exp_10/New folder/subject-8.csv,droid,Jazzy James,3.1.7,0,21,NA,1,NA,1,1,NA,21,432,NA,44351,NA,574,721,NA,432,2,legacy,Female,1024,2,48000,-16,experiment,8,even,droid,7734,NA,NA,97365,97800,12767,57694,NA,97366,67095,NA,NA,NA,NA,2370,NA,NA,97800,NA,57120,66373,NA,97366,Runtime for Android template,54,26214,61,0.2,no,1280,0.203993969
87.09677419,87.09677419,20,429.2580645,429.2580645,#000000,no,1,droid,legacy,legacy,0,I confirm that my participation has been explained and consent to taking part in the experiment,relative,0,undefined,undefined,0,0,1,0,77,77,0,0,0,77,0,0,0,0,0,0,NA,0,77,0,0,0,NA,77,134,235,04/09/2018 11:15,A template containing a practice and an experimental phase,96,no,800,1280,15.72330189,yes,Exp_10_working.osexp,C:\Users\russe\Dropbox,no,mono,no,32,no,#ffffff,no,I confirm that my participation has been explained and consent to taking part in the experiment,NA,2,yes,800,me,droid,61,15,8,C:/Users/russe/Dropbox/Exp_10/New folder/subject-8.csv,droid,Jazzy James,3.1.7,0,7,NA,1,NA,1,1,NA,7,400,NA,44351,NA,574,721,NA,400,2,legacy,Female,1024,2,48000,-16,experiment,8,even,droid,7734,NA,NA,97852,98257,12767,57694,NA,97854,67095,NA,NA,NA,NA,2370,NA,NA,98257,NA,57120,66373,NA,97854,Runtime for Android template,54,26614,62,0.22222,no,1280,-0.204657364
87.3015873,87.3015873,20,429.2698413,429.2698413,#000000,no,1,droid,legacy,legacy,0,I confirm that my participation has been explained and consent to taking part in the experiment,relative,1,undefined,undefined,1,0,1,0,78,78,0,0,0,78,0,0,0,0,0,0,NA,0,78,0,0,0,NA,78,655,153,04/09/2018 11:15,A template containing a practice and an experimental phase,96,no,800,1280,15.72330189,yes,Exp_10_working.osexp,C:\Users\russe\Dropbox,no,mono,no,32,no,#ffffff,no,I confirm that my participation has been explained and consent to taking part in the experiment,NA,1,yes,800,ed,droid,62,15,4,C:/Users/russe/Dropbox/Exp_10/New folder/subject-8.csv,droid,Jazzy James,3.1.7,0,4,NA,1,NA,1,1,NA,4,430,NA,44351,NA,574,721,NA,430,2,legacy,Female,1024,2,48000,-16,experiment,8,even,droid,7734,NA,NA,98366,98800,12767,57694,NA,98368,67095,NA,NA,NA,NA,2370,NA,NA,98800,NA,57120,66373,NA,98368,Runtime for Android template,55,27044,63,0.83333,no,1280,0.178453261
87.5,87.5,20,436.546875,436.546875,#000000,no,1,droid,legacy,legacy,0,I confirm that my participation has been explained and consent to taking part in the experiment,relative,1,undefined,undefined,1,0,1,0,79,79,0,0,0,79,0,0,0,0,0,0,NA,0,79,0,0,0,NA,79,332,89,04/09/2018 11:15,A template containing a practice and an experimental phase,96,no,800,1280,15.72330189,yes,Exp_10_working.osexp,C:\Users\russe\Dropbox,no,mono,no,32,no,#ffffff,no,I confirm that my participation has been explained and consent to taking part in the experiment,NA,1,yes,800,da,droid,63,15,2,C:/Users/russe/Dropbox/Exp_10/New folder/subject-8.csv,droid,Jazzy James,3.1.7,0,2,NA,1,NA,1,1,NA,2,895,NA,44351,NA,574,721,NA,895,2,legacy,Female,1024,2,48000,-16,experiment,8,even,droid,7734,NA,NA,98853,99752,12767,57694,NA,98855,67095,NA,NA,NA,NA,2370,NA,NA,99752,NA,57120,66373,NA,98855,Runtime for Android template,56,27939,64,0.33333,no,1280,6.116667955
87.69230769,87.69230769,20,437.7076923,437.7076923,#000000,no,1,droid,legacy,legacy,0,I confirm that my participation has been explained and consent to taking part in the experiment,relative,1,undefined,undefined,1,0,1,0,80,80,0,0,0,80,0,0,0,0,0,0,NA,0,80,0,0,0,NA,80,544,92,04/09/2018 11:15,A template containing a practice and an experimental phase,96,no,800,1280,15.72330189,yes,Exp_10_working.osexp,C:\Users\russe\Dropbox,no,mono,no,32,no,#ffffff,no,I confirm that my participation has been explained and consent to taking part in the experiment,NA,2,yes,800,ab,droid,64,15,3,C:/Users/russe/Dropbox/Exp_10/New folder/subject-8.csv,droid,Jazzy James,3.1.7,0,3,NA,1,NA,1,1,NA,3,512,NA,44351,NA,574,721,NA,512,2,legacy,Female,1024,2,48000,-16,experiment,8,even,droid,7734,NA,NA,99804,100320,12767,57694,NA,99806,67095,NA,NA,NA,NA,2370,NA,NA,100320,NA,57120,66373,NA,99806,Runtime for Android template,57,28451,65,0.33333,no,1280,1.225622304
87.87878788,87.87878788,20,440.6212121,440.6212121,#000000,no,1,droid,legacy,legacy,0,I confirm that my participation has been explained and consent to taking part in the experiment,relative,1,undefined,undefined,1,0,1,0,81,81,0,0,0,81,0,0,0,0,0,0,NA,0,81,0,0,0,NA,81,928,645,04/09/2018 11:15,A template containing a practice and an experimental phase,96,no,800,1280,15.72330189,yes,Exp_10_working.osexp,C:\Users\russe\Dropbox,no,mono,no,32,no,#ffffff,no,I confirm that my participation has been explained and consent to taking part in the experiment,NA,1,yes,800,bp,droid,65,15,23,C:/Users/russe/Dropbox/Exp_10/New folder/subject-8.csv,droid,Jazzy James,3.1.7,0,23,NA,1,NA,1,1,NA,23,630,NA,44351,NA,574,721,NA,630,2,legacy,Female,1024,2,48000,-16,experiment,8,even,droid,7734,NA,NA,100382,101016,12767,57694,NA,100384,67095,NA,NA,NA,NA,2370,NA,NA,101016,NA,57120,66373,NA,100384,Runtime for Android template,58,29081,66,0.125,no,1280,2.732524097
88.05970149,88.05970149,20,441.7164179,441.7164179,#000000,no,1,droid,legacy,legacy,0,I confirm that my participation has been explained and consent to taking part in the experiment,relative,1,undefined,undefined,1,0,1,0,82,82,0,0,0,82,0,0,0,0,0,0,NA,0,82,0,0,0,NA,82,412,263,04/09/2018 11:15,A template containing a practice and an experimental phase,96,no,800,1280,15.72330189,yes,Exp_10_working.osexp,C:\Users\russe\Dropbox,no,mono,no,32,no,#ffffff,no,I confirm that my participation has been explained and consent to taking part in the experiment,NA,1,yes,800,pe,droid,66,15,8,C:/Users/russe/Dropbox/Exp_10/New folder/subject-8.csv,droid,Jazzy James,3.1.7,0,8,NA,1,NA,1,1,NA,8,514,NA,44351,NA,574,721,NA,514,2,legacy,Female,1024,2,48000,-16,experiment,8,even,droid,7734,NA,NA,101075,101592,12767,57694,NA,101076,67095,NA,NA,NA,NA,2370,NA,NA,101592,NA,57120,66373,NA,101076,Runtime for Android template,59,29595,67,0.2,no,1280,1.251163012
88.23529412,88.23529412,20,441.8970588,441.8970588,#000000,no,1,droid,legacy,legacy,0,I confirm that my participation has been explained and consent to taking part in the experiment,relative,1,undefined,undefined,1,0,1,0,83,83,0,0,0,83,0,0,0,0,0,0,NA,0,83,0,0,0,NA,83,409,302,04/09/2018 11:15,A template containing a practice and an experimental phase,96,no,800,1280,15.72330189,yes,Exp_10_working.osexp,C:\Users\russe\Dropbox,no,mono,no,32,no,#ffffff,no,I confirm that my participation has been explained and consent to taking part in the experiment,NA,2,yes,800,ee,droid,67,15,8,C:/Users/russe/Dropbox/Exp_10/New folder/subject-8.csv,droid,Jazzy James,3.1.7,0,8,NA,1,NA,1,1,NA,8,454,NA,44351,NA,574,721,NA,454,2,legacy,Female,1024,2,48000,-16,experiment,8,even,droid,7734,NA,NA,101647,102103,12767,57694,NA,101648,67095,NA,NA,NA,NA,2370,NA,NA,102103,NA,57120,66373,NA,101648,Runtime for Android template,60,30049,68,0.16667,no,1280,0.484941761
88.4057971,88.4057971,20,442.115942,442.115942,#000000,no,1,droid,legacy,legacy,0,I confirm that my participation has been explained and consent to taking part in the experiment,relative,1,undefined,undefined,1,0,1,0,84,84,0,0,0,84,0,0,0,0,0,0,NA,0,84,0,0,0,NA,84,553,148,04/09/2018 11:15,A template containing a practice and an experimental phase,96,no,800,1280,15.72330189,yes,Exp_10_working.osexp,C:\Users\russe\Dropbox,no,mono,no,32,no,#ffffff,no,I confirm that my participation has been explained and consent to taking part in the experiment,NA,1,yes,800,eb,droid,68,15,3,C:/Users/russe/Dropbox/Exp_10/New folder/subject-8.csv,droid,Jazzy James,3.1.7,0,3,NA,1,NA,1,1,NA,3,457,NA,44351,NA,574,721,NA,457,2,legacy,Female,1024,2,48000,-16,experiment,8,even,droid,7734,NA,NA,102162,102624,12767,57694,NA,102165,67095,NA,NA,NA,NA,2370,NA,NA,102624,NA,57120,66373,NA,102165,Runtime for Android template,61,30506,69,0.08333,no,1280,0.523252824
88.57142857,88.57142857,20,441.9857143,441.9857143,#000000,no,1,droid,legacy,legacy,0,I confirm that my participation has been explained and consent to taking part in the experiment,relative,1,undefined,undefined,1,0,1,0,85,85,0,0,0,85,0,0,0,0,0,0,NA,0,85,0,0,0,NA,85,318,325,04/09/2018 11:15,A template containing a practice and an experimental phase,96,no,800,1280,15.72330189,yes,Exp_10_working.osexp,C:\Users\russe\Dropbox,no,mono,no,32,no,#ffffff,no,I confirm that my participation has been explained and consent to taking part in the experiment,NA,1,yes,800,be,droid,69,15,8,C:/Users/russe/Dropbox/Exp_10/New folder/subject-8.csv,droid,Jazzy James,3.1.7,0,8,NA,1,NA,1,1,NA,8,433,NA,44351,NA,574,721,NA,433,2,legacy,Female,1024,2,48000,-16,experiment,8,even,droid,7734,NA,NA,102683,103121,12767,57694,NA,102685,67095,NA,NA,NA,NA,2370,NA,NA,103121,NA,57120,66373,NA,102685,Runtime for Android template,62,30939,70,0.125,no,1280,0.216764324
88.73239437,88.73239437,20,442.1549296,442.1549296,#000000,no,1,droid,legacy,legacy,0,I confirm that my participation has been explained and consent to taking part in the experiment,relative,1,undefined,undefined,1,0,1,0,86,86,0,0,0,86,0,0,0,0,0,0,NA,0,86,0,0,0,NA,86,567,156,04/09/2018 11:15,A template containing a practice and an experimental phase,96,no,800,1280,15.72330189,yes,Exp_10_working.osexp,C:\Users\russe\Dropbox,no,mono,no,32,no,#ffffff,no,I confirm that my participation has been explained and consent to taking part in the experiment,NA,2,yes,800,bb,droid,70,15,3,C:/Users/russe/Dropbox/Exp_10/New folder/subject-8.csv,droid,Jazzy James,3.1.7,0,3,NA,1,NA,1,1,NA,3,454,NA,44351,NA,574,721,NA,454,2,legacy,Female,1024,2,48000,-16,experiment,8,even,droid,7734,NA,NA,103183,103641,12767,57694,NA,103184,67095,NA,NA,NA,NA,2370,NA,NA,103641,NA,57120,66373,NA,103184,Runtime for Android template,63,31393,71,0.25,no,1280,0.484941761
88.88888889,88.88888889,20,448.7361111,448.7361111,#000000,no,1,droid,legacy,legacy,0,I confirm that my participation has been explained and consent to taking part in the experiment,relative,1,undefined,undefined,1,0,1,0,87,87,0,0,0,87,0,0,0,0,0,0,NA,0,87,0,0,0,NA,87,753,189,04/09/2018 11:15,A template containing a practice and an experimental phase,96,no,800,1280,15.72330189,yes,Exp_10_working.osexp,C:\Users\russe\Dropbox,no,mono,no,32,no,#ffffff,no,I confirm that my participation has been explained and consent to taking part in the experiment,NA,1,yes,800,bc,droid,71,15,4,C:/Users/russe/Dropbox/Exp_10/New folder/subject-8.csv,droid,Jazzy James,3.1.7,0,4,NA,1,NA,1,1,NA,4,916,NA,44351,NA,574,721,NA,916,2,legacy,Female,1024,2,48000,-16,experiment,8,even,droid,7734,NA,NA,103689,104608,12767,57694,NA,103690,67095,NA,NA,NA,NA,2370,NA,NA,104608,NA,57120,66373,NA,103690,Runtime for Android template,64,32309,72,0.125,no,1280,6.384845393
89.04109589,89.04109589,20,450.6027397,450.6027397,#000000,no,1,droid,legacy,legacy,0,I confirm that my participation has been explained and consent to taking part in the experiment,relative,1,undefined,undefined,1,0,1,0,88,88,0,0,0,88,0,0,0,0,0,0,NA,0,88,0,0,0,NA,88,827,638,04/09/2018 11:15,A template containing a practice and an experimental phase,96,no,800,1280,15.72330189,yes,Exp_10_working.osexp,C:\Users\russe\Dropbox,no,mono,no,32,no,#ffffff,no,I confirm that my participation has been explained and consent to taking part in the experiment,NA,3,yes,800,co,droid,72,15,22,C:/Users/russe/Dropbox/Exp_10/New folder/subject-8.csv,droid,Jazzy James,3.1.7,0,22,NA,1,NA,1,1,NA,22,585,NA,44351,NA,574,721,NA,585,2,legacy,Female,1024,2,48000,-16,experiment,8,even,droid,7734,NA,NA,104676,105264,12767,57694,NA,104677,67095,NA,NA,NA,NA,2370,NA,NA,105264,NA,57120,66373,NA,104677,Runtime for Android template,65,32894,73,0.3,no,1280,2.157858159
89.18918919,89.18918919,20,450.9324324,450.9324324,#000000,no,1,droid,legacy,legacy,0,I confirm that my participation has been explained and consent to taking part in the experiment,relative,1,undefined,undefined,1,0,1,0,89,89,0,0,0,89,0,0,0,0,0,0,NA,0,89,0,0,0,NA,89,386,171,04/09/2018 11:15,A template containing a practice and an experimental phase,96,no,800,1280,15.72330189,yes,Exp_10_working.osexp,C:\Users\russe\Dropbox,no,mono,no,32,no,#ffffff,no,I confirm that my participation has been explained and consent to taking part in the experiment,NA,4,yes,800,oa,droid,73,15,2,C:/Users/russe/Dropbox/Exp_10/New folder/subject-8.csv,droid,Jazzy James,3.1.7,0,2,NA,1,NA,1,1,NA,2,475,NA,44351,NA,574,721,NA,475,2,legacy,Female,1024,2,48000,-16,experiment,8,even,droid,7734,NA,NA,105409,105888,12767,57694,NA,105411,67095,NA,NA,NA,NA,2370,NA,NA,105889,NA,57120,66373,NA,105411,Runtime for Android template,66,33369,74,0.25,no,1280,0.753119199
89.33333333,89.33333333,20,449.7466667,449.7466667,#000000,no,1,droid,legacy,legacy,0,I confirm that my participation has been explained and consent to taking part in the experiment,relative,1,undefined,undefined,1,0,1,0,90,90,0,0,0,90,0,0,0,0,0,0,NA,0,90,0,0,0,NA,90,779,674,04/09/2018 11:15,A template containing a practice and an experimental phase,96,no,800,1280,15.72330189,yes,Exp_10_working.osexp,C:\Users\russe\Dropbox,no,mono,no,32,no,#ffffff,no,I confirm that my participation has been explained and consent to taking part in the experiment,NA,2,yes,800,ao,droid,74,15,22,C:/Users/russe/Dropbox/Exp_10/New folder/subject-8.csv,droid,Jazzy James,3.1.7,0,22,NA,1,NA,1,1,NA,22,362,NA,44351,NA,574,721,NA,362,2,legacy,Female,1024,2,48000,-16,experiment,8,even,droid,7734,NA,NA,105946,106312,12767,57694,NA,105948,67095,NA,NA,NA,NA,2370,NA,NA,106312,NA,57120,66373,NA,105948,Runtime for Android template,67,33731,75,0.33333,no,1280,-0.689930823
89.47368421,89.47368421,20,449.1578947,449.1578947,#000000,no,1,droid,legacy,legacy,0,I confirm that my participation has been explained and consent to taking part in the experiment,relative,1,undefined,undefined,1,0,1,0,91,91,0,0,0,91,0,0,0,0,0,0,NA,0,91,0,0,0,NA,91,733,112,04/09/2018 11:15,A template containing a practice and an experimental phase,96,no,800,1280,15.72330189,yes,Exp_10_working.osexp,C:\Users\russe\Dropbox,no,mono,no,32,no,#ffffff,no,I confirm that my participation has been explained and consent to taking part in the experiment,NA,2,yes,800,oc,droid,75,15,4,C:/Users/russe/Dropbox/Exp_10/New folder/subject-8.csv,droid,Jazzy James,3.1.7,0,4,NA,1,NA,1,1,NA,4,405,NA,44351,NA,574,721,NA,405,2,legacy,Female,1024,2,48000,-16,experiment,8,even,droid,7734,NA,NA,106384,106792,12767,57694,NA,106385,67095,NA,NA,NA,NA,2370,NA,NA,106792,NA,57120,66373,NA,106385,Runtime for Android template,68,34136,76,0.125,no,1280,-0.140805593
89.61038961,89.61038961,20,447.6103896,447.6103896,#000000,no,1,droid,legacy,legacy,0,I confirm that my participation has been explained and consent to taking part in the experiment,relative,1,undefined,undefined,1,0,1,0,92,92,0,0,0,92,0,0,0,0,0,0,NA,0,92,0,0,0,NA,92,730,511,04/09/2018 11:15,A template containing a practice and an experimental phase,96,no,800,1280,15.72330189,yes,Exp_10_working.osexp,C:\Users\russe\Dropbox,no,mono,no,32,no,#ffffff,no,I confirm that my participation has been explained and consent to taking part in the experiment,NA,1,yes,800,ck,droid,76,15,16,C:/Users/russe/Dropbox/Exp_10/New folder/subject-8.csv,droid,Jazzy James,3.1.7,0,16,NA,1,NA,1,1,NA,16,330,NA,44351,NA,574,721,NA,330,2,legacy,Female,1024,2,48000,-16,experiment,8,even,droid,7734,NA,NA,106851,107184,12767,57694,NA,106852,67095,NA,NA,NA,NA,2370,NA,NA,107184,NA,57120,66373,NA,106852,Runtime for Android template,69,34466,77,0.1,no,1280,-1.098582157
89.74358974,89.74358974,20,446.6153846,446.6153846,#000000,no,1,droid,legacy,legacy,0,I confirm that my participation has been explained and consent to taking part in the experiment,relative,1,undefined,undefined,1,0,1,0,93,93,0,0,0,93,0,0,0,0,0,0,NA,0,93,0,0,0,NA,93,734,298,04/09/2018 11:15,A template containing a practice and an experimental phase,96,no,800,1280,15.72330189,yes,Exp_10_working.osexp,C:\Users\russe\Dropbox,no,mono,no,32,no,#ffffff,no,I confirm that my participation has been explained and consent to taking part in the experiment,NA,1,yes,800,kg,droid,77,15,10,C:/Users/russe/Dropbox/Exp_10/New folder/subject-8.csv,droid,Jazzy James,3.1.7,0,10,NA,1,NA,1,1,NA,10,370,NA,44351,NA,574,721,NA,370,2,legacy,Female,1024,2,48000,-16,experiment,8,even,droid,7734,NA,NA,107275,107648,12767,57694,NA,107276,67095,NA,NA,NA,NA,2370,NA,NA,107648,NA,57120,66373,NA,107276,Runtime for Android template,70,34836,78,0.125,no,1280,-0.58776799
89.87341772,89.87341772,20,446.7594937,446.7594937,#000000,no,1,droid,legacy,legacy,0,I confirm that my participation has been explained and consent to taking part in the experiment,relative,1,undefined,undefined,1,0,1,0,94,94,0,0,0,94,0,0,0,0,0,0,NA,0,94,0,0,0,NA,94,566,672,04/09/2018 11:15,A template containing a practice and an experimental phase,96,no,800,1280,15.72330189,yes,Exp_10_working.osexp,C:\Users\russe\Dropbox,no,mono,no,32,no,#ffffff,no,I confirm that my participation has been explained and consent to taking part in the experiment,NA,1,yes,800,gn,droid,78,15,21,C:/Users/russe/Dropbox/Exp_10/New folder/subject-8.csv,droid,Jazzy James,3.1.7,0,21,NA,1,NA,1,1,NA,21,458,NA,44351,NA,574,721,NA,458,2,legacy,Female,1024,2,48000,-16,experiment,8,even,droid,7734,NA,NA,107706,108168,12767,57694,NA,107708,67095,NA,NA,NA,NA,2370,NA,NA,108168,NA,57120,66373,NA,107708,Runtime for Android template,71,35294,79,0.2,no,1280,0.536023178
90,90,20,446.0875,446.0875,#000000,no,1,droid,legacy,legacy,0,I confirm that my participation has been explained and consent to taking part in the experiment,relative,1,undefined,undefined,1,0,1,0,95,95,0,0,0,95,0,0,0,0,0,0,NA,0,95,0,0,0,NA,95,940,346,04/09/2018 11:15,A template containing a practice and an experimental phase,96,no,800,1280,15.72330189,yes,Exp_10_working.osexp,C:\Users\russe\Dropbox,no,mono,no,32,no,#ffffff,no,I confirm that my participation has been explained and consent to taking part in the experiment,NA,4,yes,800,nh,droid,79,15,11,C:/Users/russe/Dropbox/Exp_10/New folder/subject-8.csv,droid,Jazzy James,3.1.7,0,11,NA,1,NA,1,1,NA,11,393,NA,44351,NA,574,721,NA,393,2,legacy,Female,1024,2,48000,-16,experiment,8,even,droid,7734,NA,NA,108315,108712,12767,57694,NA,108317,67095,NA,NA,NA,NA,2370,NA,NA,108712,NA,57120,66373,NA,108317,Runtime for Android template,72,35687,80,0.8,no,1280,-0.294049844
90.12345679,90.12345679,20,446.1234568,446.1234568,#000000,no,1,droid,legacy,legacy,0,I confirm that my participation has been explained and consent to taking part in the experiment,relative,1,undefined,undefined,1,0,1,0,96,96,0,0,0,96,0,0,0,0,0,0,NA,0,96,0,0,0,NA,96,990,301,04/09/2018 11:15,A template containing a practice and an experimental phase,96,no,800,1280,15.72330189,yes,Exp_10_working.osexp,C:\Users\russe\Dropbox,no,mono,no,32,no,#ffffff,no,I confirm that my participation has been explained and consent to taking part in the experiment,NA,1,yes,800,hn,droid,80,15,11,C:/Users/russe/Dropbox/Exp_10/New folder/subject-8.csv,droid,Jazzy James,3.1.7,0,11,NA,1,NA,1,1,NA,11,449,NA,44351,NA,574,721,NA,449,2,legacy,Female,1024,2,48000,-16,experiment,8,even,droid,7734,NA,NA,108763,109216,12767,57694,NA,108765,67095,NA,NA,NA,NA,2370,NA,NA,109216,NA,57120,66373,NA,108765,Runtime for Android template,73,36136,81,0.07692,no,1280,0.42108999
90.24390244,90.24390244,20,445.5731707,445.5731707,#000000,no,1,droid,legacy,legacy,0,I confirm that my participation has been explained and consent to taking part in the experiment,relative,1,undefined,undefined,1,0,1,0,97,97,0,0,0,97,0,0,0,0,0,0,NA,0,97,0,0,0,NA,97,604,678,04/09/2018 11:15,A template containing a practice and an experimental phase,96,no,800,1280,15.72330189,yes,Exp_10_working.osexp,C:\Users\russe\Dropbox,no,mono,no,32,no,#ffffff,no,I confirm that my participation has been explained and consent to taking part in the experiment,NA,4,yes,800,nh,droid,81,15,21,C:/Users/russe/Dropbox/Exp_10/New folder/subject-8.csv,droid,Jazzy James,3.1.7,0,21,NA,1,NA,1,1,NA,21,401,NA,44351,NA,574,721,NA,401,2,legacy,Female,1024,2,48000,-16,experiment,8,even,droid,7734,NA,NA,109276,109680,12767,57694,NA,109277,67095,NA,NA,NA,NA,2370,NA,NA,109680,NA,57120,66373,NA,109277,Runtime for Android template,74,36537,82,0.8,no,1280,-0.19188701
90.36144578,90.36144578,20,444.4096386,444.4096386,#000000,no,1,droid,legacy,legacy,0,I confirm that my participation has been explained and consent to taking part in the experiment,relative,1,undefined,undefined,1,0,1,0,98,98,0,0,0,98,0,0,0,0,0,0,NA,0,98,0,0,0,NA,98,1020,686,04/09/2018 11:15,A template containing a practice and an experimental phase,96,no,800,1280,15.72330189,yes,Exp_10_working.osexp,C:\Users\russe\Dropbox,no,mono,no,32,no,#ffffff,no,I confirm that my participation has been explained and consent to taking part in the experiment,NA,1,yes,800,hp,droid,82,15,23,C:/Users/russe/Dropbox/Exp_10/New folder/subject-8.csv,droid,Jazzy James,3.1.7,0,23,NA,1,NA,1,1,NA,23,349,NA,44351,NA,574,721,NA,349,2,legacy,Female,1024,2,48000,-16,experiment,8,even,droid,7734,NA,NA,109743,110096,12767,57694,NA,109745,67095,NA,NA,NA,NA,2370,NA,NA,110096,NA,57120,66373,NA,109745,Runtime for Android template,75,36886,83,0.07692,no,1280,-0.855945428
90.47619048,90.47619048,20,444.7380952,444.7380952,#000000,no,1,droid,legacy,legacy,0,I confirm that my participation has been explained and consent to taking part in the experiment,relative,1,undefined,undefined,1,0,1,0,99,99,0,0,0,99,0,0,0,0,0,0,NA,0,99,0,0,0,NA,99,324,743,04/09/2018 11:15,A template containing a practice and an experimental phase,96,no,800,1280,15.72330189,yes,Exp_10_working.osexp,C:\Users\russe\Dropbox,no,mono,no,32,no,#ffffff,no,I confirm that my participation has been explained and consent to taking part in the experiment,NA,1,yes,800,pm,droid,83,15,20,C:/Users/russe/Dropbox/Exp_10/New folder/subject-8.csv,droid,Jazzy James,3.1.7,0,20,NA,1,NA,1,1,NA,20,472,NA,44351,NA,574,721,NA,472,2,legacy,Female,1024,2,48000,-16,experiment,8,even,droid,7734,NA,NA,110156,110633,12767,57694,NA,110158,67095,NA,NA,NA,NA,2370,NA,NA,110633,NA,57120,66373,NA,110158,Runtime for Android template,76,37358,84,0.2,no,1280,0.714808137
90.58823529,90.58823529,20,444.7058824,444.7058824,#000000,no,1,droid,legacy,legacy,0,I confirm that my participation has been explained and consent to taking part in the experiment,relative,1,undefined,undefined,1,0,1,0,100,100,0,0,0,100,0,0,0,0,0,0,NA,0,100,0,0,0,NA,100,990,362,04/09/2018 11:15,A template containing a practice and an experimental phase,96,no,800,1280,15.72330189,yes,Exp_10_working.osexp,C:\Users\russe\Dropbox,no,mono,no,32,no,#ffffff,no,I confirm that my participation has been explained and consent to taking part in the experiment,NA,1,yes,800,mh,droid,84,15,11,C:/Users/russe/Dropbox/Exp_10/New folder/subject-8.csv,droid,Jazzy James,3.1.7,0,11,NA,1,NA,1,1,NA,11,442,NA,44351,NA,574,721,NA,442,2,legacy,Female,1024,2,48000,-16,experiment,8,even,droid,7734,NA,NA,110689,111136,12767,57694,NA,110691,67095,NA,NA,NA,NA,2370,NA,NA,111136,NA,57120,66373,NA,110692,Runtime for Android template,77,37800,85,0.11111,no,1280,0.331697511
90.69767442,90.69767442,20,443.8023256,443.8023256,#000000,no,1,droid,legacy,legacy,0,I confirm that my participation has been explained and consent to taking part in the experiment,relative,1,undefined,undefined,1,0,1,0,101,101,0,0,0,101,0,0,0,0,0,0,NA,0,101,0,0,0,NA,101,626,492,04/09/2018 11:15,A template containing a practice and an experimental phase,96,no,800,1280,15.72330189,yes,Exp_10_working.osexp,C:\Users\russe\Dropbox,no,mono,no,32,no,#ffffff,no,I confirm that my participation has been explained and consent to taking part in the experiment,NA,2,yes,800,hj,droid,85,15,15,C:/Users/russe/Dropbox/Exp_10/New folder/subject-8.csv,droid,Jazzy James,3.1.7,0,15,NA,1,NA,1,1,NA,15,367,NA,44351,NA,574,721,NA,367,2,legacy,Female,1024,2,48000,-16,experiment,8,even,droid,7734,NA,NA,111197,111568,12767,57694,NA,111199,67095,NA,NA,NA,NA,2370,NA,NA,111568,NA,57120,66373,NA,111199,Runtime for Android template,78,38167,86,0.15385,no,1280,-0.626079052
90.8045977,90.8045977,20,443.6896552,443.6896552,#000000,no,1,droid,legacy,legacy,0,I confirm that my participation has been explained and consent to taking part in the experiment,relative,1,undefined,undefined,1,0,1,0,102,102,0,0,0,102,0,0,0,0,0,0,NA,0,102,0,0,0,NA,102,918,362,04/09/2018 11:15,A template containing a practice and an experimental phase,96,no,800,1280,15.72330189,yes,Exp_10_working.osexp,C:\Users\russe\Dropbox,no,mono,no,32,no,#ffffff,no,I confirm that my participation has been explained and consent to taking part in the experiment,NA,1,yes,800,jh,droid,86,15,11,C:/Users/russe/Dropbox/Exp_10/New folder/subject-8.csv,droid,Jazzy James,3.1.7,0,11,NA,1,NA,1,1,NA,11,434,NA,44351,NA,574,721,NA,434,2,legacy,Female,1024,2,48000,-16,experiment,8,even,droid,7734,NA,NA,111627,112065,12767,57694,NA,111628,67095,NA,NA,NA,NA,2370,NA,NA,112065,NA,57120,66373,NA,111628,Runtime for Android template,79,38601,87,0.125,no,1280,0.229534678
90.90909091,90.90909091,20,443.1931818,443.1931818,#000000,no,1,droid,legacy,legacy,0,I confirm that my participation has been explained and consent to taking part in the experiment,relative,1,undefined,undefined,1,0,1,0,103,103,0,0,0,103,0,0,0,0,0,0,NA,0,103,0,0,0,NA,103,647,378,04/09/2018 11:15,A template containing a practice and an experimental phase,96,no,800,1280,15.72330189,yes,Exp_10_working.osexp,C:\Users\russe\Dropbox,no,mono,no,32,no,#ffffff,no,I confirm that my participation has been explained and consent to taking part in the experiment,NA,2,yes,800,hg,droid,87,15,10,C:/Users/russe/Dropbox/Exp_10/New folder/subject-8.csv,droid,Jazzy James,3.1.7,0,10,NA,1,NA,1,1,NA,10,400,NA,44351,NA,574,721,NA,400,2,legacy,Female,1024,2,48000,-16,experiment,8,even,droid,7734,NA,NA,112157,112561,12767,57694,NA,112158,67095,NA,NA,NA,NA,2370,NA,NA,112561,NA,57120,66373,NA,112158,Runtime for Android template,80,39001,88,0.15385,no,1280,-0.204657364
91.01123596,91.01123596,20,441.6629213,441.6629213,#000000,no,1,droid,legacy,legacy,0,I confirm that my participation has been explained and consent to taking part in the experiment,relative,1,undefined,undefined,1,0,1,0,104,104,0,0,0,104,0,0,0,0,0,0,NA,0,104,0,0,0,NA,104,501,530,04/09/2018 11:15,A template containing a practice and an experimental phase,96,no,800,1280,15.72330189,yes,Exp_10_working.osexp,C:\Users\russe\Dropbox,no,mono,no,32,no,#ffffff,no,I confirm that my participation has been explained and consent to taking part in the experiment,NA,1,yes,800,gj,droid,88,15,15,C:/Users/russe/Dropbox/Exp_10/New folder/subject-8.csv,droid,Jazzy James,3.1.7,0,15,NA,1,NA,1,1,NA,15,307,NA,44351,NA,574,721,NA,307,2,legacy,Female,1024,2,48000,-16,experiment,8,even,droid,7734,NA,NA,112625,112937,12767,57694,NA,112627,67095,NA,NA,NA,NA,2370,NA,NA,112937,NA,57120,66373,NA,112627,Runtime for Android template,81,39308,89,0.2,no,1280,-1.392300303
