acc,accuracy,age,average_response_time,avg_rt,background,bidi,block,canvas_backend,clock_backend,color_backend,compensation,consent,coordinates,correct,correct_Instructions,correct_new_sketchpad,correct_new_touch_response_4,count_Age,count_Break,count_Consent,count_Experimental_sequence,count_ISI,count_Instructions,count_Prac_block,count_Sex,count_Test_pad,count_block_1,count_block_2,count_block_3,count_block_4,count_block_5,count_experiment,count_feedback,count_incongruent_block,count_logger,count_new_reset_feedback,count_new_sketchpad,count_new_sketchpad_1,count_new_sketchpad_3,count_new_touch_response_4,cursor_x,cursor_y,datetime,description,device_dpi,device_is_tablet,device_resolution_height,device_resolution_width,device_screen_diag,disable_garbage_collection,experiment_file,experiment_path,font_bold,font_family,font_italic,font_size,font_underline,foreground,form_clicks,form_response,form_var,freq,fullscreen,height,key,keyboard_backend,live_row,live_row_Prac_block,loc,logfile,mouse_backend,opensesame_codename,opensesame_version,repeat_cycle,response,response_Break,response_Instructions,response_feedback,response_new_sketchpad,response_new_sketchpad_1,response_new_sketchpad_3,response_new_touch_response_4,response_time,response_time_Break,response_time_Instructions,response_time_feedback,response_time_new_sketchpad,response_time_new_sketchpad_1,response_time_new_sketchpad_3,response_time_new_touch_response_4,round_decimals,sampler_backend,sex,sound_buf_size,sound_channels,sound_freq,sound_sample_size,start,subject_nr,subject_parity,synth_backend,time_Age,time_Break,time_Consent,time_Experimental_sequence,time_ISI,time_Instructions,time_Prac_block,time_Sex,time_Test_pad,time_block_1,time_block_2,time_block_3,time_block_4,time_block_5,time_experiment,time_feedback,time_incongruent_block,time_logger,time_new_reset_feedback,time_new_sketchpad,time_new_sketchpad_1,time_new_sketchpad_3,time_new_touch_response_4,title,total_correct,total_response_time,total_responses,tp,uniform_coordinates,width,z
100,100,22,802,802,#000000,no,NA,droid,legacy,legacy,0,I confirm that my participation has been explained and consent to taking part in the experiment,relative,1,undefined,undefined,1,0,1,0,0,0,0,0,0,0,0,0,0,0,0,0,NA,0,0,0,0,0,NA,0,790,694,04/09/2018 10:17,A template containing a practice and an experimental phase,96,no,800,1280,15.72330189,yes,Exp_10_working.osexp,C:\Users\russe\Dropbox,no,mono,no,32,no,#ffffff,no,I confirm that my participation has been explained and consent to taking part in the experiment,NA,NA,yes,800,NA,droid,0,0,22,C:/Users/russe/Dropbox/Exp_10/New folder/subject-4.csv,droid,Jazzy James,3.1.7,0,22,NA,1,NA,1,NA,NA,22,802,NA,1286,NA,695,NA,NA,802,2,legacy,Female,1024,2,48000,-16,experiment,4,even,droid,5351,NA,NA,11375,12180,9372,11355,NA,11376,NA,NA,NA,NA,NA,2402,NA,NA,12180,NA,10659,NA,NA,11376,Runtime for Android template,1,802,1,NA,no,1280,3.63044015
100,100,22,602,602,#000000,no,NA,droid,legacy,legacy,0,I confirm that my participation has been explained and consent to taking part in the experiment,relative,1,undefined,undefined,1,0,1,0,1,1,0,0,0,1,0,0,0,0,0,0,NA,0,1,0,0,0,NA,1,786,336,04/09/2018 10:17,A template containing a practice and an experimental phase,96,no,800,1280,15.72330189,yes,Exp_10_working.osexp,C:\Users\russe\Dropbox,no,mono,no,32,no,#ffffff,no,I confirm that my participation has been explained and consent to taking part in the experiment,NA,NA,yes,800,NA,droid,1,1,10,C:/Users/russe/Dropbox/Exp_10/New folder/subject-4.csv,droid,Jazzy James,3.1.7,0,10,NA,1,NA,1,NA,NA,10,402,NA,1286,NA,695,NA,NA,402,2,legacy,Female,1024,2,48000,-16,experiment,4,even,droid,5351,NA,NA,12294,12700,9372,11355,NA,12295,NA,NA,NA,NA,NA,2402,NA,NA,12700,NA,10659,NA,NA,12296,Runtime for Android template,2,1204,2,NA,no,1280,-0.489351599
100,100,22,546,546,#000000,no,NA,droid,legacy,legacy,0,I confirm that my participation has been explained and consent to taking part in the experiment,relative,1,undefined,undefined,1,0,1,0,2,2,0,0,0,2,0,0,0,0,0,0,NA,0,2,0,0,0,NA,2,1021,294,04/09/2018 10:17,A template containing a practice and an experimental phase,96,no,800,1280,15.72330189,yes,Exp_10_working.osexp,C:\Users\russe\Dropbox,no,mono,no,32,no,#ffffff,no,I confirm that my participation has been explained and consent to taking part in the experiment,NA,NA,yes,800,NA,droid,2,2,11,C:/Users/russe/Dropbox/Exp_10/New folder/subject-4.csv,droid,Jazzy James,3.1.7,0,11,NA,1,NA,1,NA,NA,11,434,NA,1286,NA,695,NA,NA,434,2,legacy,Female,1024,2,48000,-16,experiment,4,even,droid,5351,NA,NA,12766,13203,9372,11355,NA,12767,NA,NA,NA,NA,NA,2402,NA,NA,13203,NA,10659,NA,NA,12768,Runtime for Android template,3,1638,3,NA,no,1280,-0.159768259
100,100,22,515.25,515.25,#000000,no,NA,droid,legacy,legacy,0,I confirm that my participation has been explained and consent to taking part in the experiment,relative,1,undefined,undefined,1,0,1,0,3,3,0,0,0,3,0,0,0,0,0,0,NA,0,3,0,0,0,NA,3,821,158,04/09/2018 10:17,A template containing a practice and an experimental phase,96,no,800,1280,15.72330189,yes,Exp_10_working.osexp,C:\Users\russe\Dropbox,no,mono,no,32,no,#ffffff,no,I confirm that my participation has been explained and consent to taking part in the experiment,NA,NA,yes,800,NA,droid,3,3,4,C:/Users/russe/Dropbox/Exp_10/New folder/subject-4.csv,droid,Jazzy James,3.1.7,0,4,NA,1,NA,1,NA,NA,4,423,NA,1286,NA,695,NA,NA,423,2,legacy,Female,1024,2,48000,-16,experiment,4,even,droid,5351,NA,NA,13265,13692,9372,11355,NA,13267,NA,NA,NA,NA,NA,2402,NA,NA,13692,NA,10659,NA,NA,13267,Runtime for Android template,4,2061,4,NA,no,1280,-0.273062532
100,100,22,520.6,520.6,#000000,no,NA,droid,legacy,legacy,0,I confirm that my participation has been explained and consent to taking part in the experiment,relative,1,undefined,undefined,1,0,1,0,4,4,0,0,0,4,0,0,0,0,0,0,NA,0,4,0,0,0,NA,4,535,121,04/09/2018 10:17,A template containing a practice and an experimental phase,96,no,800,1280,15.72330189,yes,Exp_10_working.osexp,C:\Users\russe\Dropbox,no,mono,no,32,no,#ffffff,no,I confirm that my participation has been explained and consent to taking part in the experiment,NA,NA,yes,800,NA,droid,4,4,3,C:/Users/russe/Dropbox/Exp_10/New folder/subject-4.csv,droid,Jazzy James,3.1.7,0,3,NA,1,NA,1,NA,NA,3,542,NA,1286,NA,695,NA,NA,542,2,legacy,Female,1024,2,48000,-16,experiment,4,even,droid,5351,NA,NA,13739,14284,9372,11355,NA,13740,NA,NA,NA,NA,NA,2402,NA,NA,14284,NA,10659,NA,NA,13740,Runtime for Android template,5,2603,5,NA,no,1280,0.952575514
100,100,22,505.5,505.5,#000000,no,NA,droid,legacy,legacy,0,I confirm that my participation has been explained and consent to taking part in the experiment,relative,1,undefined,undefined,1,0,1,0,5,5,0,0,0,5,0,0,0,0,0,0,NA,0,5,0,0,0,NA,5,921,122,04/09/2018 10:17,A template containing a practice and an experimental phase,96,no,800,1280,15.72330189,yes,Exp_10_working.osexp,C:\Users\russe\Dropbox,no,mono,no,32,no,#ffffff,no,I confirm that my participation has been explained and consent to taking part in the experiment,NA,NA,yes,800,NA,droid,5,5,5,C:/Users/russe/Dropbox/Exp_10/New folder/subject-4.csv,droid,Jazzy James,3.1.7,0,5,NA,1,NA,1,NA,NA,5,430,NA,1286,NA,695,NA,NA,430,2,legacy,Female,1024,2,48000,-16,experiment,4,even,droid,5351,NA,NA,14362,14795,9372,11355,NA,14364,NA,NA,NA,NA,NA,2402,NA,NA,14795,NA,10659,NA,NA,14364,Runtime for Android template,6,3033,6,NA,no,1280,-0.200966176
100,100,22,528.1428571,528.1428571,#000000,no,NA,droid,legacy,legacy,0,I confirm that my participation has been explained and consent to taking part in the experiment,relative,1,undefined,undefined,1,0,1,0,6,6,0,0,0,6,0,0,0,0,0,0,NA,0,6,0,0,0,NA,6,930,720,04/09/2018 10:17,A template containing a practice and an experimental phase,96,no,800,1280,15.72330189,yes,Exp_10_working.osexp,C:\Users\russe\Dropbox,no,mono,no,32,no,#ffffff,no,I confirm that my participation has been explained and consent to taking part in the experiment,NA,NA,yes,800,NA,droid,6,6,23,C:/Users/russe/Dropbox/Exp_10/New folder/subject-4.csv,droid,Jazzy James,3.1.7,0,23,NA,1,NA,1,NA,NA,23,664,NA,1286,NA,695,NA,NA,664,2,legacy,Female,1024,2,48000,-16,experiment,4,even,droid,5351,NA,NA,14848,15516,9372,11355,NA,14850,NA,NA,NA,NA,NA,2402,NA,NA,15516,NA,10659,NA,NA,14850,Runtime for Android template,7,3697,7,NA,no,1280,2.209111997
100,100,22,541.625,541.625,#000000,no,NA,droid,legacy,legacy,0,I confirm that my participation has been explained and consent to taking part in the experiment,relative,1,undefined,undefined,1,0,1,0,7,7,0,0,0,7,0,0,0,0,0,0,NA,0,7,0,0,0,NA,7,350,138,04/09/2018 10:17,A template containing a practice and an experimental phase,96,no,800,1280,15.72330189,yes,Exp_10_working.osexp,C:\Users\russe\Dropbox,no,mono,no,32,no,#ffffff,no,I confirm that my participation has been explained and consent to taking part in the experiment,NA,NA,yes,800,NA,droid,7,7,2,C:/Users/russe/Dropbox/Exp_10/New folder/subject-4.csv,droid,Jazzy James,3.1.7,0,2,NA,1,NA,1,NA,NA,2,636,NA,1286,NA,695,NA,NA,636,2,legacy,Female,1024,2,48000,-16,experiment,4,even,droid,5351,NA,NA,15572,16212,9372,11355,NA,15574,NA,NA,NA,NA,NA,2402,NA,NA,16212,NA,10659,NA,NA,15574,Runtime for Android template,8,4333,8,NA,no,1280,1.920726574
100,100,22,528.4444444,528.4444444,#000000,no,NA,droid,legacy,legacy,0,I confirm that my participation has been explained and consent to taking part in the experiment,relative,1,undefined,undefined,1,0,1,0,8,8,0,0,0,8,0,0,0,0,0,0,NA,0,8,0,0,0,NA,8,510,308,04/09/2018 10:17,A template containing a practice and an experimental phase,96,no,800,1280,15.72330189,yes,Exp_10_working.osexp,C:\Users\russe\Dropbox,no,mono,no,32,no,#ffffff,no,I confirm that my participation has been explained and consent to taking part in the experiment,NA,NA,yes,800,NA,droid,8,8,9,C:/Users/russe/Dropbox/Exp_10/New folder/subject-4.csv,droid,Jazzy James,3.1.7,0,9,NA,1,NA,1,NA,NA,9,423,NA,1286,NA,695,NA,NA,423,2,legacy,Female,1024,2,48000,-16,experiment,4,even,droid,5351,NA,NA,16266,16692,9372,11355,NA,16268,NA,NA,NA,NA,NA,2402,NA,NA,16692,NA,10659,NA,NA,16268,Runtime for Android template,9,4756,9,NA,no,1280,-0.273062532
100,100,22,526.2,526.2,#000000,no,NA,droid,legacy,legacy,0,I confirm that my participation has been explained and consent to taking part in the experiment,relative,1,undefined,undefined,1,0,1,0,9,9,0,0,0,9,0,0,0,0,0,0,NA,0,9,0,0,0,NA,9,1041,508,04/09/2018 10:17,A template containing a practice and an experimental phase,96,no,800,1280,15.72330189,yes,Exp_10_working.osexp,C:\Users\russe\Dropbox,no,mono,no,32,no,#ffffff,no,I confirm that my participation has been explained and consent to taking part in the experiment,NA,NA,yes,800,NA,droid,9,9,17,C:/Users/russe/Dropbox/Exp_10/New folder/subject-4.csv,droid,Jazzy James,3.1.7,0,17,NA,1,NA,1,NA,NA,17,506,NA,1286,NA,695,NA,NA,506,2,legacy,Female,1024,2,48000,-16,experiment,4,even,droid,5351,NA,NA,16743,17252,9372,11355,NA,16744,NA,NA,NA,NA,NA,2402,NA,NA,17252,NA,10659,NA,NA,16744,Runtime for Android template,10,5262,10,NA,no,1280,0.581794256
100,100,22,531.8181818,531.8181818,#000000,no,NA,droid,legacy,legacy,0,I confirm that my participation has been explained and consent to taking part in the experiment,relative,1,undefined,undefined,1,0,1,0,10,10,0,0,0,10,0,0,0,0,0,0,NA,0,10,0,0,0,NA,10,519,715,04/09/2018 10:17,A template containing a practice and an experimental phase,96,no,800,1280,15.72330189,yes,Exp_10_working.osexp,C:\Users\russe\Dropbox,no,mono,no,32,no,#ffffff,no,I confirm that my participation has been explained and consent to taking part in the experiment,NA,NA,yes,800,NA,droid,10,10,21,C:/Users/russe/Dropbox/Exp_10/New folder/subject-4.csv,droid,Jazzy James,3.1.7,0,21,NA,1,NA,1,NA,NA,21,588,NA,1286,NA,695,NA,NA,588,2,legacy,Female,1024,2,48000,-16,experiment,4,even,droid,5351,NA,NA,17301,17892,9372,11355,NA,17302,NA,NA,NA,NA,NA,2402,NA,NA,17892,NA,10659,NA,NA,17302,Runtime for Android template,11,5850,11,NA,no,1280,1.426351565
100,100,22,522.4166667,522.4166667,#000000,no,NA,droid,legacy,legacy,0,I confirm that my participation has been explained and consent to taking part in the experiment,relative,1,undefined,undefined,1,0,1,0,11,11,0,0,0,11,0,0,0,0,0,0,NA,0,11,0,0,0,NA,11,749,513,04/09/2018 10:17,A template containing a practice and an experimental phase,96,no,800,1280,15.72330189,yes,Exp_10_working.osexp,C:\Users\russe\Dropbox,no,mono,no,32,no,#ffffff,no,I confirm that my participation has been explained and consent to taking part in the experiment,NA,NA,yes,800,NA,droid,11,11,16,C:/Users/russe/Dropbox/Exp_10/New folder/subject-4.csv,droid,Jazzy James,3.1.7,0,16,NA,1,NA,1,NA,NA,16,419,NA,1286,NA,695,NA,NA,419,2,legacy,Female,1024,2,48000,-16,experiment,4,even,droid,5351,NA,NA,17949,18371,9372,11355,NA,17951,NA,NA,NA,NA,NA,2402,NA,NA,18371,NA,10659,NA,NA,17951,Runtime for Android template,12,6269,12,NA,no,1280,-0.314260449
100,100,22,523.3846154,523.3846154,#000000,no,NA,droid,legacy,legacy,0,I confirm that my participation has been explained and consent to taking part in the experiment,relative,1,undefined,undefined,1,0,1,0,12,12,0,0,0,12,0,0,0,0,0,0,NA,0,12,0,0,0,NA,12,359,657,04/09/2018 10:17,A template containing a practice and an experimental phase,96,no,800,1280,15.72330189,yes,Exp_10_working.osexp,C:\Users\russe\Dropbox,no,mono,no,32,no,#ffffff,no,I confirm that my participation has been explained and consent to taking part in the experiment,NA,NA,yes,800,NA,droid,12,12,20,C:/Users/russe/Dropbox/Exp_10/New folder/subject-4.csv,droid,Jazzy James,3.1.7,0,20,NA,1,NA,1,NA,NA,20,535,NA,1286,NA,695,NA,NA,535,2,legacy,Female,1024,2,48000,-16,experiment,4,even,droid,5351,NA,NA,18434,18971,9372,11355,NA,18435,NA,NA,NA,NA,NA,2402,NA,NA,18971,NA,10659,NA,NA,18435,Runtime for Android template,13,6804,13,NA,no,1280,0.880479158
100,100,22,517.7857143,517.7857143,#000000,no,NA,droid,legacy,legacy,0,I confirm that my participation has been explained and consent to taking part in the experiment,relative,1,undefined,undefined,1,0,1,0,13,13,0,0,0,13,0,0,0,0,0,0,NA,0,13,0,0,0,NA,13,405,319,04/09/2018 10:17,A template containing a practice and an experimental phase,96,no,800,1280,15.72330189,yes,Exp_10_working.osexp,C:\Users\russe\Dropbox,no,mono,no,32,no,#ffffff,no,I confirm that my participation has been explained and consent to taking part in the experiment,NA,NA,yes,800,NA,droid,13,13,8,C:/Users/russe/Dropbox/Exp_10/New folder/subject-4.csv,droid,Jazzy James,3.1.7,0,8,NA,1,NA,1,NA,NA,8,445,NA,1286,NA,695,NA,NA,445,2,legacy,Female,1024,2,48000,-16,experiment,4,even,droid,5351,NA,NA,19043,19492,9372,11355,NA,19045,NA,NA,NA,NA,NA,2402,NA,NA,19492,NA,10659,NA,NA,19045,Runtime for Android template,14,7249,14,NA,no,1280,-0.046473986
100,100,22,535.8666667,535.8666667,#000000,no,NA,droid,legacy,legacy,0,I confirm that my participation has been explained and consent to taking part in the experiment,relative,1,undefined,undefined,1,0,1,0,14,14,0,0,0,14,0,0,0,0,0,0,NA,0,14,0,0,0,NA,14,303,525,04/09/2018 10:17,A template containing a practice and an experimental phase,96,no,800,1280,15.72330189,yes,Exp_10_working.osexp,C:\Users\russe\Dropbox,no,mono,no,32,no,#ffffff,no,I confirm that my participation has been explained and consent to taking part in the experiment,NA,NA,yes,800,NA,droid,14,14,14,C:/Users/russe/Dropbox/Exp_10/New folder/subject-4.csv,droid,Jazzy James,3.1.7,0,14,NA,1,NA,1,NA,NA,14,789,NA,1286,NA,695,NA,NA,789,2,legacy,Female,1024,2,48000,-16,experiment,4,even,droid,5351,NA,NA,19539,20332,9372,11355,NA,19541,NA,NA,NA,NA,NA,2402,NA,NA,20332,NA,10659,NA,NA,19541,Runtime for Android template,15,8038,15,NA,no,1280,3.496546918
100,100,22,529.6875,529.6875,#000000,no,NA,droid,legacy,legacy,0,I confirm that my participation has been explained and consent to taking part in the experiment,relative,1,undefined,undefined,1,0,1,0,15,15,0,0,0,15,0,0,0,0,0,0,NA,0,15,0,0,0,NA,15,511,514,04/09/2018 10:17,A template containing a practice and an experimental phase,96,no,800,1280,15.72330189,yes,Exp_10_working.osexp,C:\Users\russe\Dropbox,no,mono,no,32,no,#ffffff,no,I confirm that my participation has been explained and consent to taking part in the experiment,NA,NA,yes,800,NA,droid,15,15,15,C:/Users/russe/Dropbox/Exp_10/New folder/subject-4.csv,droid,Jazzy James,3.1.7,0,15,NA,1,NA,1,NA,NA,15,437,NA,1286,NA,695,NA,NA,437,2,legacy,Female,1024,2,48000,-16,experiment,4,even,droid,5351,NA,NA,20396,20836,9372,11355,NA,20397,NA,NA,NA,NA,NA,2402,NA,NA,20836,NA,10659,NA,NA,20397,Runtime for Android template,16,8475,16,NA,no,1280,-0.128869821
100,100,22,561,561,#000000,no,1,droid,legacy,legacy,0,I confirm that my participation has been explained and consent to taking part in the experiment,relative,1,undefined,undefined,1,0,1,0,16,16,0,0,0,16,0,0,0,0,0,0,NA,0,16,0,0,0,NA,16,368,343,04/09/2018 10:17,A template containing a practice and an experimental phase,96,no,800,1280,15.72330189,yes,Exp_10_working.osexp,C:\Users\russe\Dropbox,no,mono,no,32,no,#ffffff,no,I confirm that my participation has been explained and consent to taking part in the experiment,NA,2,yes,800,oe,droid,0,15,8,C:/Users/russe/Dropbox/Exp_10/New folder/subject-4.csv,droid,Jazzy James,3.1.7,0,8,NA,1,NA,1,1,NA,8,561,NA,1286,NA,695,769,NA,561,2,legacy,Female,1024,2,48000,-16,experiment,4,even,droid,5351,NA,NA,21664,22228,9372,11355,NA,21665,21643,NA,NA,NA,NA,2402,NA,NA,22228,NA,10659,20873,NA,21665,Runtime for Android template,1,561,1,0.125,no,1280,1.148265622
100,100,22,442.5,442.5,#000000,no,1,droid,legacy,legacy,0,I confirm that my participation has been explained and consent to taking part in the experiment,relative,1,undefined,undefined,1,0,1,0,17,17,0,0,0,17,0,0,0,0,0,0,NA,0,17,0,0,0,NA,17,366,340,04/09/2018 10:17,A template containing a practice and an experimental phase,96,no,800,1280,15.72330189,yes,Exp_10_working.osexp,C:\Users\russe\Dropbox,no,mono,no,32,no,#ffffff,no,I confirm that my participation has been explained and consent to taking part in the experiment,NA,2,yes,800,ee,droid,1,15,8,C:/Users/russe/Dropbox/Exp_10/New folder/subject-4.csv,droid,Jazzy James,3.1.7,0,8,NA,1,NA,1,1,NA,8,324,NA,1286,NA,695,769,NA,324,2,legacy,Female,1024,2,48000,-16,experiment,4,even,droid,5351,NA,NA,22276,22604,9372,11355,NA,22278,21643,NA,NA,NA,NA,2402,NA,NA,22604,NA,10659,20873,NA,22278,Runtime for Android template,2,885,2,0.16667,no,1280,-1.29271099
100,100,22,462,462,#000000,no,1,droid,legacy,legacy,0,I confirm that my participation has been explained and consent to taking part in the experiment,relative,1,undefined,undefined,1,0,1,0,18,18,0,0,0,18,0,0,0,0,0,0,NA,0,18,0,0,0,NA,18,809,518,04/09/2018 10:17,A template containing a practice and an experimental phase,96,no,800,1280,15.72330189,yes,Exp_10_working.osexp,C:\Users\russe\Dropbox,no,mono,no,32,no,#ffffff,no,I confirm that my participation has been explained and consent to taking part in the experiment,NA,1,yes,800,ek,droid,2,15,16,C:/Users/russe/Dropbox/Exp_10/New folder/subject-4.csv,droid,Jazzy James,3.1.7,0,16,NA,1,NA,1,1,NA,16,501,NA,1286,NA,695,769,NA,501,2,legacy,Female,1024,2,48000,-16,experiment,4,even,droid,5351,NA,NA,22659,23164,9372,11355,NA,22661,21643,NA,NA,NA,NA,2402,NA,NA,23164,NA,10659,20873,NA,22661,Runtime for Android template,3,1386,3,0.08333,no,1280,0.530296859
100,100,22,479.75,479.75,#000000,no,1,droid,legacy,legacy,0,I confirm that my participation has been explained and consent to taking part in the experiment,relative,1,undefined,undefined,1,0,1,0,19,19,0,0,0,19,0,0,0,0,0,0,NA,0,19,0,0,0,NA,19,735,149,04/09/2018 10:17,A template containing a practice and an experimental phase,96,no,800,1280,15.72330189,yes,Exp_10_working.osexp,C:\Users\russe\Dropbox,no,mono,no,32,no,#ffffff,no,I confirm that my participation has been explained and consent to taking part in the experiment,NA,1,yes,800,kc,droid,3,15,4,C:/Users/russe/Dropbox/Exp_10/New folder/subject-4.csv,droid,Jazzy James,3.1.7,0,4,NA,1,NA,1,1,NA,4,533,NA,1286,NA,695,769,NA,533,2,legacy,Female,1024,2,48000,-16,experiment,4,even,droid,5351,NA,NA,23227,23764,9372,11355,NA,23229,21643,NA,NA,NA,NA,2402,NA,NA,23764,NA,10659,20873,NA,23229,Runtime for Android template,4,1919,4,0.125,no,1280,0.859880199
100,100,22,481,481,#000000,no,1,droid,legacy,legacy,0,I confirm that my participation has been explained and consent to taking part in the experiment,relative,1,undefined,undefined,1,0,1,0,20,20,0,0,0,20,0,0,0,0,0,0,NA,0,20,0,0,0,NA,20,1040,565,04/09/2018 10:17,A template containing a practice and an experimental phase,96,no,800,1280,15.72330189,yes,Exp_10_working.osexp,C:\Users\russe\Dropbox,no,mono,no,32,no,#ffffff,no,I confirm that my participation has been explained and consent to taking part in the experiment,NA,1,yes,800,cl,droid,4,15,17,C:/Users/russe/Dropbox/Exp_10/New folder/subject-4.csv,droid,Jazzy James,3.1.7,0,17,NA,1,NA,1,1,NA,17,486,NA,1286,NA,695,769,NA,486,2,legacy,Female,1024,2,48000,-16,experiment,4,even,droid,5351,NA,NA,23827,24316,9372,11355,NA,23828,21643,NA,NA,NA,NA,2402,NA,NA,24316,NA,10659,20873,NA,23828,Runtime for Android template,5,2405,5,0.1,no,1280,0.375804669
100,100,22,489.6666667,489.6666667,#000000,no,1,droid,legacy,legacy,0,I confirm that my participation has been explained and consent to taking part in the experiment,relative,1,undefined,undefined,1,0,1,0,21,21,0,0,0,21,0,0,0,0,0,0,NA,0,21,0,0,0,NA,21,319,667,04/09/2018 10:17,A template containing a practice and an experimental phase,96,no,800,1280,15.72330189,yes,Exp_10_working.osexp,C:\Users\russe\Dropbox,no,mono,no,32,no,#ffffff,no,I confirm that my participation has been explained and consent to taking part in the experiment,NA,1,yes,800,lm,droid,5,15,20,C:/Users/russe/Dropbox/Exp_10/New folder/subject-4.csv,droid,Jazzy James,3.1.7,0,20,NA,1,NA,1,1,NA,20,533,NA,1286,NA,695,769,NA,533,2,legacy,Female,1024,2,48000,-16,experiment,4,even,droid,5351,NA,NA,24483,25020,9372,11355,NA,24485,21643,NA,NA,NA,NA,2402,NA,NA,25020,NA,10659,20873,NA,24485,Runtime for Android template,6,2938,6,0.25,no,1280,0.859880199
100,100,22,482.8571429,482.8571429,#000000,no,1,droid,legacy,legacy,0,I confirm that my participation has been explained and consent to taking part in the experiment,relative,1,undefined,undefined,1,0,1,0,22,22,0,0,0,22,0,0,0,0,0,0,NA,0,22,0,0,0,NA,22,322,227,04/09/2018 10:17,A template containing a practice and an experimental phase,96,no,800,1280,15.72330189,yes,Exp_10_working.osexp,C:\Users\russe\Dropbox,no,mono,no,32,no,#ffffff,no,I confirm that my participation has been explained and consent to taking part in the experiment,NA,2,yes,800,me,droid,6,15,8,C:/Users/russe/Dropbox/Exp_10/New folder/subject-4.csv,droid,Jazzy James,3.1.7,0,8,NA,1,NA,1,1,NA,8,442,NA,1286,NA,695,769,NA,442,2,legacy,Female,1024,2,48000,-16,experiment,4,even,droid,5351,NA,NA,25111,25556,9372,11355,NA,25112,21643,NA,NA,NA,NA,2402,NA,NA,25556,NA,10659,20873,NA,25112,Runtime for Android template,7,3380,7,0.22222,no,1280,-0.077372424
100,100,22,478.125,478.125,#000000,no,1,droid,legacy,legacy,0,I confirm that my participation has been explained and consent to taking part in the experiment,relative,1,undefined,undefined,1,0,1,0,23,23,0,0,0,23,0,0,0,0,0,0,NA,0,23,0,0,0,NA,23,364,98,04/09/2018 10:17,A template containing a practice and an experimental phase,96,no,800,1280,15.72330189,yes,Exp_10_working.osexp,C:\Users\russe\Dropbox,no,mono,no,32,no,#ffffff,no,I confirm that my participation has been explained and consent to taking part in the experiment,NA,1,yes,800,ea,droid,7,15,2,C:/Users/russe/Dropbox/Exp_10/New folder/subject-4.csv,droid,Jazzy James,3.1.7,0,2,NA,1,NA,1,1,NA,2,445,NA,1286,NA,695,769,NA,445,2,legacy,Female,1024,2,48000,-16,experiment,4,even,droid,5351,NA,NA,25635,26084,9372,11355,NA,25637,21643,NA,NA,NA,NA,2402,NA,NA,26084,NA,10659,20873,NA,25637,Runtime for Android template,8,3825,8,0.08333,no,1280,-0.046473986
100,100,22,476.8888889,476.8888889,#000000,no,1,droid,legacy,legacy,0,I confirm that my participation has been explained and consent to taking part in the experiment,relative,1,undefined,undefined,1,0,1,0,24,24,0,0,0,24,0,0,0,0,0,0,NA,0,24,0,0,0,NA,24,785,655,04/09/2018 10:17,A template containing a practice and an experimental phase,96,no,800,1280,15.72330189,yes,Exp_10_working.osexp,C:\Users\russe\Dropbox,no,mono,no,32,no,#ffffff,no,I confirm that my participation has been explained and consent to taking part in the experiment,NA,2,yes,800,ao,droid,8,15,22,C:/Users/russe/Dropbox/Exp_10/New folder/subject-4.csv,droid,Jazzy James,3.1.7,0,22,NA,1,NA,1,1,NA,22,467,NA,1286,NA,695,769,NA,467,2,legacy,Female,1024,2,48000,-16,experiment,4,even,droid,5351,NA,NA,26134,26604,9372,11355,NA,26135,21643,NA,NA,NA,NA,2402,NA,NA,26604,NA,10659,20873,NA,26135,Runtime for Android template,9,4292,9,0.33333,no,1280,0.180114561
100,100,22,471.4,471.4,#000000,no,1,droid,legacy,legacy,0,I confirm that my participation has been explained and consent to taking part in the experiment,relative,1,undefined,undefined,1,0,1,0,25,25,0,0,0,25,0,0,0,0,0,0,NA,0,25,0,0,0,NA,25,635,525,04/09/2018 10:17,A template containing a practice and an experimental phase,96,no,800,1280,15.72330189,yes,Exp_10_working.osexp,C:\Users\russe\Dropbox,no,mono,no,32,no,#ffffff,no,I confirm that my participation has been explained and consent to taking part in the experiment,NA,1,yes,800,oj,droid,9,15,15,C:/Users/russe/Dropbox/Exp_10/New folder/subject-4.csv,droid,Jazzy James,3.1.7,0,15,NA,1,NA,1,1,NA,15,422,NA,1286,NA,695,769,NA,422,2,legacy,Female,1024,2,48000,-16,experiment,4,even,droid,5351,NA,NA,26675,27101,9372,11355,NA,26676,21643,NA,NA,NA,NA,2402,NA,NA,27101,NA,10659,20873,NA,26676,Runtime for Android template,10,4714,10,0.0625,no,1280,-0.283362011
100,100,22,469.2727273,469.2727273,#000000,no,1,droid,legacy,legacy,0,I confirm that my participation has been explained and consent to taking part in the experiment,relative,1,undefined,undefined,1,0,1,0,26,26,0,0,0,26,0,0,0,0,0,0,NA,0,26,0,0,0,NA,26,525,703,04/09/2018 10:17,A template containing a practice and an experimental phase,96,no,800,1280,15.72330189,yes,Exp_10_working.osexp,C:\Users\russe\Dropbox,no,mono,no,32,no,#ffffff,no,I confirm that my participation has been explained and consent to taking part in the experiment,NA,1,yes,800,jn,droid,10,15,21,C:/Users/russe/Dropbox/Exp_10/New folder/subject-4.csv,droid,Jazzy James,3.1.7,0,21,NA,1,NA,1,1,NA,21,448,NA,1286,NA,695,769,NA,448,2,legacy,Female,1024,2,48000,-16,experiment,4,even,droid,5351,NA,NA,27152,27604,9372,11355,NA,27154,21643,NA,NA,NA,NA,2402,NA,NA,27604,NA,10659,20873,NA,27154,Runtime for Android template,11,5162,11,0.125,no,1280,-0.015575547
100,100,22,473.75,473.75,#000000,no,1,droid,legacy,legacy,0,I confirm that my participation has been explained and consent to taking part in the experiment,relative,1,undefined,undefined,1,0,1,0,27,27,0,0,0,27,0,0,0,0,0,0,NA,0,27,0,0,0,NA,27,903,319,04/09/2018 10:17,A template containing a practice and an experimental phase,96,no,800,1280,15.72330189,yes,Exp_10_working.osexp,C:\Users\russe\Dropbox,no,mono,no,32,no,#ffffff,no,I confirm that my participation has been explained and consent to taking part in the experiment,NA,4,yes,800,nh,droid,11,15,11,C:/Users/russe/Dropbox/Exp_10/New folder/subject-4.csv,droid,Jazzy James,3.1.7,0,11,NA,1,NA,1,1,NA,11,523,NA,1286,NA,695,769,NA,523,2,legacy,Female,1024,2,48000,-16,experiment,4,even,droid,5351,NA,NA,27661,28188,9372,11355,NA,27663,21643,NA,NA,NA,NA,2402,NA,NA,28188,NA,10659,20873,NA,27663,Runtime for Android template,12,5685,12,0.8,no,1280,0.756885405
100,100,22,479,479,#000000,no,1,droid,legacy,legacy,0,I confirm that my participation has been explained and consent to taking part in the experiment,relative,1,undefined,undefined,1,0,1,0,28,28,0,0,0,28,0,0,0,0,0,0,NA,0,28,0,0,0,NA,28,296,483,04/09/2018 10:17,A template containing a practice and an experimental phase,96,no,800,1280,15.72330189,yes,Exp_10_working.osexp,C:\Users\russe\Dropbox,no,mono,no,32,no,#ffffff,no,I confirm that my participation has been explained and consent to taking part in the experiment,NA,1,yes,800,hi,droid,12,15,14,C:/Users/russe/Dropbox/Exp_10/New folder/subject-4.csv,droid,Jazzy James,3.1.7,0,14,NA,1,NA,1,1,NA,14,542,NA,1286,NA,695,769,NA,542,2,legacy,Female,1024,2,48000,-16,experiment,4,even,droid,5351,NA,NA,28242,28788,9372,11355,NA,28244,21643,NA,NA,NA,NA,2402,NA,NA,28788,NA,10659,20873,NA,28244,Runtime for Android template,13,6227,13,0.07692,no,1280,0.952575514
100,100,22,484.5714286,484.5714286,#000000,no,1,droid,legacy,legacy,0,I confirm that my participation has been explained and consent to taking part in the experiment,relative,1,undefined,undefined,1,0,1,0,29,29,0,0,0,29,0,0,0,0,0,0,NA,0,29,0,0,0,NA,29,714,122,04/09/2018 10:17,A template containing a practice and an experimental phase,96,no,800,1280,15.72330189,yes,Exp_10_working.osexp,C:\Users\russe\Dropbox,no,mono,no,32,no,#ffffff,no,I confirm that my participation has been explained and consent to taking part in the experiment,NA,1,yes,800,ic,droid,13,15,4,C:/Users/russe/Dropbox/Exp_10/New folder/subject-4.csv,droid,Jazzy James,3.1.7,0,4,NA,1,NA,1,1,NA,4,557,NA,1286,NA,695,769,NA,557,2,legacy,Female,1024,2,48000,-16,experiment,4,even,droid,5351,NA,NA,28851,29412,9372,11355,NA,28853,21643,NA,NA,NA,NA,2402,NA,NA,29412,NA,10659,20873,NA,28853,Runtime for Android template,14,6784,14,1,no,1280,1.107067704
100,100,22,480.2666667,480.2666667,#000000,no,1,droid,legacy,legacy,0,I confirm that my participation has been explained and consent to taking part in the experiment,relative,1,undefined,undefined,1,0,1,0,30,30,0,0,0,30,0,0,0,0,0,0,NA,0,30,0,0,0,NA,30,761,225,04/09/2018 10:17,A template containing a practice and an experimental phase,96,no,800,1280,15.72330189,yes,Exp_10_working.osexp,C:\Users\russe\Dropbox,no,mono,no,32,no,#ffffff,no,I confirm that my participation has been explained and consent to taking part in the experiment,NA,1,yes,800,cg,droid,14,15,10,C:/Users/russe/Dropbox/Exp_10/New folder/subject-4.csv,droid,Jazzy James,3.1.7,0,10,NA,1,NA,1,1,NA,10,420,NA,1286,NA,695,769,NA,420,2,legacy,Female,1024,2,48000,-16,experiment,4,even,droid,5351,NA,NA,29483,29908,9372,11355,NA,29485,21643,NA,NA,NA,NA,2402,NA,NA,29908,NA,10659,20873,NA,29486,Runtime for Android template,15,7204,15,0.1,no,1280,-0.30396097
100,100,22,474.9375,474.9375,#000000,no,1,droid,legacy,legacy,0,I confirm that my participation has been explained and consent to taking part in the experiment,relative,1,undefined,undefined,1,0,1,0,31,31,0,0,0,31,0,0,0,0,0,0,NA,0,31,0,0,0,NA,31,939,443,04/09/2018 10:17,A template containing a practice and an experimental phase,96,no,800,1280,15.72330189,yes,Exp_10_working.osexp,C:\Users\russe\Dropbox,no,mono,no,32,no,#ffffff,no,I confirm that my participation has been explained and consent to taking part in the experiment,NA,1,yes,800,gl,droid,15,15,17,C:/Users/russe/Dropbox/Exp_10/New folder/subject-4.csv,droid,Jazzy James,3.1.7,0,17,NA,1,NA,1,1,NA,17,395,NA,1286,NA,695,769,NA,395,2,legacy,Female,1024,2,48000,-16,experiment,4,even,droid,5351,NA,NA,29989,30388,9372,11355,NA,29991,21643,NA,NA,NA,NA,2402,NA,NA,30388,NA,10659,20873,NA,29991,Runtime for Android template,16,7599,16,0.2,no,1280,-0.561447954
100,100,22,474.4705882,474.4705882,#000000,no,1,droid,legacy,legacy,0,I confirm that my participation has been explained and consent to taking part in the experiment,relative,1,undefined,undefined,1,0,1,0,32,32,0,0,0,32,0,0,0,0,0,0,NA,0,32,0,0,0,NA,32,714,120,04/09/2018 10:17,A template containing a practice and an experimental phase,96,no,800,1280,15.72330189,yes,Exp_10_working.osexp,C:\Users\russe\Dropbox,no,mono,no,32,no,#ffffff,no,I confirm that my participation has been explained and consent to taking part in the experiment,NA,1,yes,800,lc,droid,16,15,4,C:/Users/russe/Dropbox/Exp_10/New folder/subject-4.csv,droid,Jazzy James,3.1.7,0,4,NA,1,NA,1,1,NA,4,467,NA,1286,NA,695,769,NA,467,2,legacy,Female,1024,2,48000,-16,experiment,4,even,droid,5351,NA,NA,30438,30908,9372,11355,NA,30439,21643,NA,NA,NA,NA,2402,NA,NA,30908,NA,10659,20873,NA,30439,Runtime for Android template,17,8066,17,0.25,no,1280,0.180114561
100,100,22,474.7777778,474.7777778,#000000,no,1,droid,legacy,legacy,0,I confirm that my participation has been explained and consent to taking part in the experiment,relative,1,undefined,undefined,1,0,1,0,33,33,0,0,0,33,0,0,0,0,0,0,NA,0,33,0,0,0,NA,33,756,707,04/09/2018 10:17,A template containing a practice and an experimental phase,96,no,800,1280,15.72330189,yes,Exp_10_working.osexp,C:\Users\russe\Dropbox,no,mono,no,32,no,#ffffff,no,I confirm that my participation has been explained and consent to taking part in the experiment,NA,3,yes,800,co,droid,17,15,22,C:/Users/russe/Dropbox/Exp_10/New folder/subject-4.csv,droid,Jazzy James,3.1.7,0,22,NA,1,NA,1,1,NA,22,480,NA,1286,NA,695,769,NA,480,2,legacy,Female,1024,2,48000,-16,experiment,4,even,droid,5351,NA,NA,30993,31476,9372,11355,NA,30994,21643,NA,NA,NA,NA,2402,NA,NA,31476,NA,10659,20873,NA,30994,Runtime for Android template,18,8546,18,0.3,no,1280,0.314007792
100,100,22,472.7368421,472.7368421,#000000,no,1,droid,legacy,legacy,0,I confirm that my participation has been explained and consent to taking part in the experiment,relative,1,undefined,undefined,1,0,1,0,34,34,0,0,0,34,0,0,0,0,0,0,NA,0,34,0,0,0,NA,34,979,390,04/09/2018 10:17,A template containing a practice and an experimental phase,96,no,800,1280,15.72330189,yes,Exp_10_working.osexp,C:\Users\russe\Dropbox,no,mono,no,32,no,#ffffff,no,I confirm that my participation has been explained and consent to taking part in the experiment,NA,1,yes,800,oh,droid,18,15,11,C:/Users/russe/Dropbox/Exp_10/New folder/subject-4.csv,droid,Jazzy James,3.1.7,0,11,NA,1,NA,1,1,NA,11,436,NA,1286,NA,695,769,NA,436,2,legacy,Female,1024,2,48000,-16,experiment,4,even,droid,5351,NA,NA,31540,31980,9372,11355,NA,31542,21643,NA,NA,NA,NA,2402,NA,NA,31980,NA,10659,20873,NA,31542,Runtime for Android template,19,8982,19,0.0625,no,1280,-0.1391693
100,100,22,472.95,472.95,#000000,no,1,droid,legacy,legacy,0,I confirm that my participation has been explained and consent to taking part in the experiment,relative,1,undefined,undefined,1,0,1,0,35,35,0,0,0,35,0,0,0,0,0,0,NA,0,35,0,0,0,NA,35,498,514,04/09/2018 10:17,A template containing a practice and an experimental phase,96,no,800,1280,15.72330189,yes,Exp_10_working.osexp,C:\Users\russe\Dropbox,no,mono,no,32,no,#ffffff,no,I confirm that my participation has been explained and consent to taking part in the experiment,NA,2,yes,800,hj,droid,19,15,15,C:/Users/russe/Dropbox/Exp_10/New folder/subject-4.csv,droid,Jazzy James,3.1.7,0,15,NA,1,NA,1,1,NA,15,477,NA,1286,NA,695,769,NA,477,2,legacy,Female,1024,2,48000,-16,experiment,4,even,droid,5351,NA,NA,32035,32516,9372,11355,NA,32037,21643,NA,NA,NA,NA,2402,NA,NA,32516,NA,10659,20873,NA,32037,Runtime for Android template,20,9459,20,0.15385,no,1280,0.283109354
100,100,22,473.5714286,473.5714286,#000000,no,1,droid,legacy,legacy,0,I confirm that my participation has been explained and consent to taking part in the experiment,relative,1,undefined,undefined,1,0,1,0,36,36,0,0,0,36,0,0,0,0,0,0,NA,0,36,0,0,0,NA,36,813,671,04/09/2018 10:17,A template containing a practice and an experimental phase,96,no,800,1280,15.72330189,yes,Exp_10_working.osexp,C:\Users\russe\Dropbox,no,mono,no,32,no,#ffffff,no,I confirm that my participation has been explained and consent to taking part in the experiment,NA,2,yes,800,jo,droid,20,15,22,C:/Users/russe/Dropbox/Exp_10/New folder/subject-4.csv,droid,Jazzy James,3.1.7,0,22,NA,1,NA,1,1,NA,22,486,NA,1286,NA,695,769,NA,486,2,legacy,Female,1024,2,48000,-16,experiment,4,even,droid,5351,NA,NA,32578,33068,9372,11355,NA,32580,21643,NA,NA,NA,NA,2402,NA,NA,33068,NA,10659,20873,NA,32580,Runtime for Android template,21,9945,21,0.25,no,1280,0.375804669
100,100,22,472,472,#000000,no,1,droid,legacy,legacy,0,I confirm that my participation has been explained and consent to taking part in the experiment,relative,1,undefined,undefined,1,0,1,0,37,37,0,0,0,37,0,0,0,0,0,0,NA,0,37,0,0,0,NA,37,374,343,04/09/2018 10:17,A template containing a practice and an experimental phase,96,no,800,1280,15.72330189,yes,Exp_10_working.osexp,C:\Users\russe\Dropbox,no,mono,no,32,no,#ffffff,no,I confirm that my participation has been explained and consent to taking part in the experiment,NA,2,yes,800,oe,droid,21,15,8,C:/Users/russe/Dropbox/Exp_10/New folder/subject-4.csv,droid,Jazzy James,3.1.7,0,8,NA,1,NA,1,1,NA,8,439,NA,1286,NA,695,769,NA,439,2,legacy,Female,1024,2,48000,-16,experiment,4,even,droid,5351,NA,NA,33129,33572,9372,11355,NA,33131,21643,NA,NA,NA,NA,2402,NA,NA,33572,NA,10659,20873,NA,33131,Runtime for Android template,22,10384,22,0.125,no,1280,-0.108270862
100,100,22,467.2173913,467.2173913,#000000,no,1,droid,legacy,legacy,0,I confirm that my participation has been explained and consent to taking part in the experiment,relative,1,undefined,undefined,1,0,1,0,38,38,0,0,0,38,0,0,0,0,0,0,NA,0,38,0,0,0,NA,38,535,322,04/09/2018 10:17,A template containing a practice and an experimental phase,96,no,800,1280,15.72330189,yes,Exp_10_working.osexp,C:\Users\russe\Dropbox,no,mono,no,32,no,#ffffff,no,I confirm that my participation has been explained and consent to taking part in the experiment,NA,1,yes,800,ef,droid,22,15,9,C:/Users/russe/Dropbox/Exp_10/New folder/subject-4.csv,droid,Jazzy James,3.1.7,0,9,NA,1,NA,1,1,NA,9,362,NA,1286,NA,695,769,NA,362,2,legacy,Female,1024,2,48000,-16,experiment,4,even,droid,5351,NA,NA,33638,34004,9372,11355,NA,33640,21643,NA,NA,NA,NA,2402,NA,NA,34004,NA,10659,20873,NA,33640,Runtime for Android template,23,10746,23,0.08333,no,1280,-0.901330773
100,100,22,467,467,#000000,no,1,droid,legacy,legacy,0,I confirm that my participation has been explained and consent to taking part in the experiment,relative,1,undefined,undefined,1,0,1,0,39,39,0,0,0,39,0,0,0,0,0,0,NA,0,39,0,0,0,NA,39,795,740,04/09/2018 10:17,A template containing a practice and an experimental phase,96,no,800,1280,15.72330189,yes,Exp_10_working.osexp,C:\Users\russe\Dropbox,no,mono,no,32,no,#ffffff,no,I confirm that my participation has been explained and consent to taking part in the experiment,NA,1,yes,800,fo,droid,23,15,22,C:/Users/russe/Dropbox/Exp_10/New folder/subject-4.csv,droid,Jazzy James,3.1.7,0,22,NA,1,NA,1,1,NA,22,462,NA,1286,NA,695,769,NA,462,2,legacy,Female,1024,2,48000,-16,experiment,4,even,droid,5351,NA,NA,34066,34532,9372,11355,NA,34068,21643,NA,NA,NA,NA,2402,NA,NA,34532,NA,10659,20873,NA,34068,Runtime for Android template,24,11208,24,0.33333,no,1280,0.128617164
100,100,22,469.64,469.64,#000000,no,1,droid,legacy,legacy,0,I confirm that my participation has been explained and consent to taking part in the experiment,relative,1,undefined,undefined,1,0,1,0,40,40,0,0,0,40,0,0,0,0,0,0,NA,0,40,0,0,0,NA,40,363,622,04/09/2018 10:17,A template containing a practice and an experimental phase,96,no,800,1280,15.72330189,yes,Exp_10_working.osexp,C:\Users\russe\Dropbox,no,mono,no,32,no,#ffffff,no,I confirm that my participation has been explained and consent to taking part in the experiment,NA,1,yes,800,om,droid,24,15,20,C:/Users/russe/Dropbox/Exp_10/New folder/subject-4.csv,droid,Jazzy James,3.1.7,0,20,NA,1,NA,1,1,NA,20,533,NA,1286,NA,695,769,NA,533,2,legacy,Female,1024,2,48000,-16,experiment,4,even,droid,5351,NA,NA,34587,35124,9372,11355,NA,34589,21643,NA,NA,NA,NA,2402,NA,NA,35124,NA,10659,20873,NA,34589,Runtime for Android template,25,11741,25,0.0625,no,1280,0.859880199
100,100,22,470.9615385,470.9615385,#000000,no,1,droid,legacy,legacy,0,I confirm that my participation has been explained and consent to taking part in the experiment,relative,1,undefined,undefined,1,0,1,0,41,41,0,0,0,41,0,0,0,0,0,0,NA,0,41,0,0,0,NA,41,571,121,04/09/2018 10:17,A template containing a practice and an experimental phase,96,no,800,1280,15.72330189,yes,Exp_10_working.osexp,C:\Users\russe\Dropbox,no,mono,no,32,no,#ffffff,no,I confirm that my participation has been explained and consent to taking part in the experiment,NA,1,yes,800,mb,droid,25,15,3,C:/Users/russe/Dropbox/Exp_10/New folder/subject-4.csv,droid,Jazzy James,3.1.7,0,3,NA,1,NA,1,1,NA,3,504,NA,1286,NA,695,769,NA,504,2,legacy,Female,1024,2,48000,-16,experiment,4,even,droid,5351,NA,NA,35176,35684,9372,11355,NA,35178,21643,NA,NA,NA,NA,2402,NA,NA,35684,NA,10659,20873,NA,35178,Runtime for Android template,26,12245,26,0.11111,no,1280,0.561195297
100,100,22,470.2222222,470.2222222,#000000,no,1,droid,legacy,legacy,0,I confirm that my participation has been explained and consent to taking part in the experiment,relative,1,undefined,undefined,1,0,1,0,42,42,0,0,0,42,0,0,0,0,0,0,NA,0,42,0,0,0,NA,42,917,265,04/09/2018 10:17,A template containing a practice and an experimental phase,96,no,800,1280,15.72330189,yes,Exp_10_working.osexp,C:\Users\russe\Dropbox,no,mono,no,32,no,#ffffff,no,I confirm that my participation has been explained and consent to taking part in the experiment,NA,1,yes,800,bh,droid,26,15,11,C:/Users/russe/Dropbox/Exp_10/New folder/subject-4.csv,droid,Jazzy James,3.1.7,0,11,NA,1,NA,1,1,NA,11,451,NA,1286,NA,695,769,NA,451,2,legacy,Female,1024,2,48000,-16,experiment,4,even,droid,5351,NA,NA,35773,36228,9372,11355,NA,35774,21643,NA,NA,NA,NA,2402,NA,NA,36228,NA,10659,20873,NA,35775,Runtime for Android template,27,12696,27,0.125,no,1280,0.015322891
100,100,22,469.4285714,469.4285714,#000000,no,1,droid,legacy,legacy,0,I confirm that my participation has been explained and consent to taking part in the experiment,relative,1,undefined,undefined,1,0,1,0,43,43,0,0,0,43,0,0,0,0,0,0,NA,0,43,0,0,0,NA,43,1029,340,04/09/2018 10:17,A template containing a practice and an experimental phase,96,no,800,1280,15.72330189,yes,Exp_10_working.osexp,C:\Users\russe\Dropbox,no,mono,no,32,no,#ffffff,no,I confirm that my participation has been explained and consent to taking part in the experiment,NA,1,yes,800,hh,droid,27,15,11,C:/Users/russe/Dropbox/Exp_10/New folder/subject-4.csv,droid,Jazzy James,3.1.7,0,11,NA,1,NA,1,1,NA,11,448,NA,1286,NA,695,769,NA,448,2,legacy,Female,1024,2,48000,-16,experiment,4,even,droid,5351,NA,NA,36288,36740,9372,11355,NA,36290,21643,NA,NA,NA,NA,2402,NA,NA,36740,NA,10659,20873,NA,36290,Runtime for Android template,28,13144,28,0.07692,no,1280,-0.015575547
100,100,22,469.3793103,469.3793103,#000000,no,1,droid,legacy,legacy,0,I confirm that my participation has been explained and consent to taking part in the experiment,relative,1,undefined,undefined,1,0,1,0,44,44,0,0,0,44,0,0,0,0,0,0,NA,0,44,0,0,0,NA,44,688,57,04/09/2018 10:17,A template containing a practice and an experimental phase,96,no,800,1280,15.72330189,yes,Exp_10_working.osexp,C:\Users\russe\Dropbox,no,mono,no,32,no,#ffffff,no,I confirm that my participation has been explained and consent to taking part in the experiment,NA,1,yes,800,hc,droid,28,15,4,C:/Users/russe/Dropbox/Exp_10/New folder/subject-4.csv,droid,Jazzy James,3.1.7,0,4,NA,1,NA,1,1,NA,4,468,NA,1286,NA,695,769,NA,468,2,legacy,Female,1024,2,48000,-16,experiment,4,even,droid,5351,NA,NA,36796,37268,9372,11355,NA,36798,21643,NA,NA,NA,NA,2402,NA,NA,37268,NA,10659,20873,NA,36798,Runtime for Android template,29,13612,29,0.07692,no,1280,0.19041404
100,100,22,471.2666667,471.2666667,#000000,no,1,droid,legacy,legacy,0,I confirm that my participation has been explained and consent to taking part in the experiment,relative,1,undefined,undefined,1,0,1,0,45,45,0,0,0,45,0,0,0,0,0,0,NA,0,45,0,0,0,NA,45,351,322,04/09/2018 10:17,A template containing a practice and an experimental phase,96,no,800,1280,15.72330189,yes,Exp_10_working.osexp,C:\Users\russe\Dropbox,no,mono,no,32,no,#ffffff,no,I confirm that my participation has been explained and consent to taking part in the experiment,NA,1,yes,800,ce,droid,29,15,8,C:/Users/russe/Dropbox/Exp_10/New folder/subject-4.csv,droid,Jazzy James,3.1.7,0,8,NA,1,NA,1,1,NA,8,526,NA,1286,NA,695,769,NA,526,2,legacy,Female,1024,2,48000,-16,experiment,4,even,droid,5351,NA,NA,37322,37852,9372,11355,NA,37324,21643,NA,NA,NA,NA,2402,NA,NA,37852,NA,10659,20873,NA,37324,Runtime for Android template,30,14138,30,0.1,no,1280,0.787783844
100,100,22,471.5806452,471.5806452,#000000,no,1,droid,legacy,legacy,0,I confirm that my participation has been explained and consent to taking part in the experiment,relative,1,undefined,undefined,1,0,1,0,46,46,0,0,0,46,0,0,0,0,0,0,NA,0,46,0,0,0,NA,46,767,91,04/09/2018 10:17,A template containing a practice and an experimental phase,96,no,800,1280,15.72330189,yes,Exp_10_working.osexp,C:\Users\russe\Dropbox,no,mono,no,32,no,#ffffff,no,I confirm that my participation has been explained and consent to taking part in the experiment,NA,1,yes,800,ec,droid,30,15,4,C:/Users/russe/Dropbox/Exp_10/New folder/subject-4.csv,droid,Jazzy James,3.1.7,0,4,NA,1,NA,1,1,NA,4,481,NA,1286,NA,695,769,NA,481,2,legacy,Female,1024,2,48000,-16,experiment,4,even,droid,5351,NA,NA,37911,38397,9372,11355,NA,37913,21643,NA,NA,NA,NA,2402,NA,NA,38397,NA,10659,20873,NA,37913,Runtime for Android template,31,14619,31,0.08333,no,1280,0.324307272
100,100,22,475.28125,475.28125,#000000,no,1,droid,legacy,legacy,0,I confirm that my participation has been explained and consent to taking part in the experiment,relative,1,undefined,undefined,1,0,1,0,47,47,0,0,0,47,0,0,0,0,0,0,NA,0,47,0,0,0,NA,47,737,98,04/09/2018 10:17,A template containing a practice and an experimental phase,96,no,800,1280,15.72330189,yes,Exp_10_working.osexp,C:\Users\russe\Dropbox,no,mono,no,32,no,#ffffff,no,I confirm that my participation has been explained and consent to taking part in the experiment,NA,1,yes,800,cc,droid,31,15,4,C:/Users/russe/Dropbox/Exp_10/New folder/subject-4.csv,droid,Jazzy James,3.1.7,0,4,NA,1,NA,1,1,NA,4,590,NA,1286,NA,695,769,NA,590,2,legacy,Female,1024,2,48000,-16,experiment,4,even,droid,5351,NA,NA,38443,39037,9372,11355,NA,38445,21643,NA,NA,NA,NA,2402,NA,NA,39038,NA,10659,20873,NA,38445,Runtime for Android template,32,15209,32,0.1,no,1280,1.446950523
100,100,22,472.969697,472.969697,#000000,no,1,droid,legacy,legacy,0,I confirm that my participation has been explained and consent to taking part in the experiment,relative,1,undefined,undefined,1,0,1,0,48,48,0,0,0,48,0,0,0,0,0,0,NA,0,48,0,0,0,NA,48,981,311,04/09/2018 10:17,A template containing a practice and an experimental phase,96,no,800,1280,15.72330189,yes,Exp_10_working.osexp,C:\Users\russe\Dropbox,no,mono,no,32,no,#ffffff,no,I confirm that my participation has been explained and consent to taking part in the experiment,NA,1,yes,800,ch,droid,32,15,11,C:/Users/russe/Dropbox/Exp_10/New folder/subject-4.csv,droid,Jazzy James,3.1.7,0,11,NA,1,NA,1,1,NA,11,399,NA,1286,NA,695,769,NA,399,2,legacy,Female,1024,2,48000,-16,experiment,4,even,droid,5351,NA,NA,39097,39501,9372,11355,NA,39099,21643,NA,NA,NA,NA,2402,NA,NA,39501,NA,10659,20873,NA,39099,Runtime for Android template,33,15608,33,0.1,no,1280,-0.520250037
100,100,22,473.0882353,473.0882353,#000000,no,1,droid,legacy,legacy,0,I confirm that my participation has been explained and consent to taking part in the experiment,relative,1,undefined,undefined,1,0,1,0,49,49,0,0,0,49,0,0,0,0,0,0,NA,0,49,0,0,0,NA,49,291,290,04/09/2018 10:17,A template containing a practice and an experimental phase,96,no,800,1280,15.72330189,yes,Exp_10_working.osexp,C:\Users\russe\Dropbox,no,mono,no,32,no,#ffffff,no,I confirm that my participation has been explained and consent to taking part in the experiment,NA,1,yes,800,he,droid,33,15,8,C:/Users/russe/Dropbox/Exp_10/New folder/subject-4.csv,droid,Jazzy James,3.1.7,0,8,NA,1,NA,1,1,NA,8,477,NA,1286,NA,695,769,NA,477,2,legacy,Female,1024,2,48000,-16,experiment,4,even,droid,5351,NA,NA,39555,40036,9372,11355,NA,39556,21643,NA,NA,NA,NA,2402,NA,NA,40036,NA,10659,20873,NA,39557,Runtime for Android template,34,16085,34,0.07692,no,1280,0.283109354
100,100,22,474.0571429,474.0571429,#000000,no,1,droid,legacy,legacy,0,I confirm that my participation has been explained and consent to taking part in the experiment,relative,1,undefined,undefined,1,0,1,0,50,50,0,0,0,50,0,0,0,0,0,0,NA,0,50,0,0,0,NA,50,882,677,04/09/2018 10:17,A template containing a practice and an experimental phase,96,no,800,1280,15.72330189,yes,Exp_10_working.osexp,C:\Users\russe\Dropbox,no,mono,no,32,no,#ffffff,no,I confirm that my participation has been explained and consent to taking part in the experiment,NA,1,yes,800,ep,droid,34,15,23,C:/Users/russe/Dropbox/Exp_10/New folder/subject-4.csv,droid,Jazzy James,3.1.7,0,23,NA,1,NA,1,1,NA,23,507,NA,1286,NA,695,769,NA,507,2,legacy,Female,1024,2,48000,-16,experiment,4,even,droid,5351,NA,NA,40086,40597,9372,11355,NA,40087,21643,NA,NA,NA,NA,2402,NA,NA,40597,NA,10659,20873,NA,40087,Runtime for Android template,35,16592,35,0.08333,no,1280,0.592093735
100,100,22,476.2777778,476.2777778,#000000,no,1,droid,legacy,legacy,0,I confirm that my participation has been explained and consent to taking part in the experiment,relative,1,undefined,undefined,1,0,1,0,51,51,0,0,0,51,0,0,0,0,0,0,NA,0,51,0,0,0,NA,51,608,316,04/09/2018 10:17,A template containing a practice and an experimental phase,96,no,800,1280,15.72330189,yes,Exp_10_working.osexp,C:\Users\russe\Dropbox,no,mono,no,32,no,#ffffff,no,I confirm that my participation has been explained and consent to taking part in the experiment,NA,1,yes,800,pf,droid,35,15,9,C:/Users/russe/Dropbox/Exp_10/New folder/subject-4.csv,droid,Jazzy James,3.1.7,0,9,NA,1,NA,1,1,NA,9,554,NA,1286,NA,695,769,NA,554,2,legacy,Female,1024,2,48000,-16,experiment,4,even,droid,5351,NA,NA,40648,41204,9372,11355,NA,40649,21643,NA,NA,NA,NA,2402,NA,NA,41204,NA,10659,20873,NA,40649,Runtime for Android template,36,17146,36,0.2,no,1280,1.076169266
100,100,22,475.5675676,475.5675676,#000000,no,1,droid,legacy,legacy,0,I confirm that my participation has been explained and consent to taking part in the experiment,relative,1,undefined,undefined,1,0,1,0,52,52,0,0,0,52,0,0,0,0,0,0,NA,0,52,0,0,0,NA,52,285,310,04/09/2018 10:17,A template containing a practice and an experimental phase,96,no,800,1280,15.72330189,yes,Exp_10_working.osexp,C:\Users\russe\Dropbox,no,mono,no,32,no,#ffffff,no,I confirm that my participation has been explained and consent to taking part in the experiment,NA,1,yes,800,fe,droid,36,15,8,C:/Users/russe/Dropbox/Exp_10/New folder/subject-4.csv,droid,Jazzy James,3.1.7,0,8,NA,1,NA,1,1,NA,8,450,NA,1286,NA,695,769,NA,450,2,legacy,Female,1024,2,48000,-16,experiment,4,even,droid,5351,NA,NA,41278,41732,9372,11355,NA,41280,21643,NA,NA,NA,NA,2402,NA,NA,41732,NA,10659,20873,NA,41280,Runtime for Android template,37,17596,37,0.33333,no,1280,0.005023411
100,100,22,475.6578947,475.6578947,#000000,no,1,droid,legacy,legacy,0,I confirm that my participation has been explained and consent to taking part in the experiment,relative,1,undefined,undefined,1,0,1,0,53,53,0,0,0,53,0,0,0,0,0,0,NA,0,53,0,0,0,NA,53,974,349,04/09/2018 10:17,A template containing a practice and an experimental phase,96,no,800,1280,15.72330189,yes,Exp_10_working.osexp,C:\Users\russe\Dropbox,no,mono,no,32,no,#ffffff,no,I confirm that my participation has been explained and consent to taking part in the experiment,NA,1,yes,800,eh,droid,37,15,11,C:/Users/russe/Dropbox/Exp_10/New folder/subject-4.csv,droid,Jazzy James,3.1.7,0,11,NA,1,NA,1,1,NA,11,479,NA,1286,NA,695,769,NA,479,2,legacy,Female,1024,2,48000,-16,experiment,4,even,droid,5351,NA,NA,41778,42261,9372,11355,NA,41779,21643,NA,NA,NA,NA,2402,NA,NA,42261,NA,10659,20873,NA,41779,Runtime for Android template,38,18075,38,0.08333,no,1280,0.303708313
100,100,22,476.025641,476.025641,#000000,no,1,droid,legacy,legacy,0,I confirm that my participation has been explained and consent to taking part in the experiment,relative,1,undefined,undefined,1,0,1,0,54,54,0,0,0,54,0,0,0,0,0,0,NA,0,54,0,0,0,NA,54,248,621,04/09/2018 10:17,A template containing a practice and an experimental phase,96,no,800,1280,15.72330189,yes,Exp_10_working.osexp,C:\Users\russe\Dropbox,no,mono,no,32,no,#ffffff,no,I confirm that my participation has been explained and consent to taking part in the experiment,NA,1,yes,800,hm,droid,38,15,20,C:/Users/russe/Dropbox/Exp_10/New folder/subject-4.csv,droid,Jazzy James,3.1.7,0,20,NA,1,NA,1,1,NA,20,490,NA,1286,NA,695,769,NA,490,2,legacy,Female,1024,2,48000,-16,experiment,4,even,droid,5351,NA,NA,42326,42820,9372,11355,NA,42328,21643,NA,NA,NA,NA,2402,NA,NA,42820,NA,10659,20873,NA,42328,Runtime for Android template,39,18565,39,0.07692,no,1280,0.417002586
100,100,22,475.65,475.65,#000000,no,1,droid,legacy,legacy,0,I confirm that my participation has been explained and consent to taking part in the experiment,relative,1,undefined,undefined,1,0,1,0,55,55,0,0,0,55,0,0,0,0,0,0,NA,0,55,0,0,0,NA,55,533,238,04/09/2018 10:17,A template containing a practice and an experimental phase,96,no,800,1280,15.72330189,yes,Exp_10_working.osexp,C:\Users\russe\Dropbox,no,mono,no,32,no,#ffffff,no,I confirm that my participation has been explained and consent to taking part in the experiment,NA,1,yes,800,mf,droid,39,15,9,C:/Users/russe/Dropbox/Exp_10/New folder/subject-4.csv,droid,Jazzy James,3.1.7,0,9,NA,1,NA,1,1,NA,9,461,NA,1286,NA,695,769,NA,461,2,legacy,Female,1024,2,48000,-16,experiment,4,even,droid,5351,NA,NA,42891,43356,9372,11355,NA,42893,21643,NA,NA,NA,NA,2402,NA,NA,43356,NA,10659,20873,NA,42893,Runtime for Android template,40,19026,40,0.11111,no,1280,0.118317684
100,100,22,475.2439024,475.2439024,#000000,no,1,droid,legacy,legacy,0,I confirm that my participation has been explained and consent to taking part in the experiment,relative,1,undefined,undefined,1,0,1,0,56,56,0,0,0,56,0,0,0,0,0,0,NA,0,56,0,0,0,NA,56,383,707,04/09/2018 10:17,A template containing a practice and an experimental phase,96,no,800,1280,15.72330189,yes,Exp_10_working.osexp,C:\Users\russe\Dropbox,no,mono,no,32,no,#ffffff,no,I confirm that my participation has been explained and consent to taking part in the experiment,NA,1,yes,800,fm,droid,40,15,20,C:/Users/russe/Dropbox/Exp_10/New folder/subject-4.csv,droid,Jazzy James,3.1.7,0,20,NA,1,NA,1,1,NA,20,459,NA,1286,NA,695,769,NA,459,2,legacy,Female,1024,2,48000,-16,experiment,4,even,droid,5351,NA,NA,43429,43892,9372,11355,NA,43431,21643,NA,NA,NA,NA,2402,NA,NA,43892,NA,10659,20873,NA,43431,Runtime for Android template,41,19485,41,0.33333,no,1280,0.097718726
100,100,22,473.8095238,473.8095238,#000000,no,1,droid,legacy,legacy,0,I confirm that my participation has been explained and consent to taking part in the experiment,relative,1,undefined,undefined,1,0,1,0,57,57,0,0,0,57,0,0,0,0,0,0,NA,0,57,0,0,0,NA,57,568,708,04/09/2018 10:17,A template containing a practice and an experimental phase,96,no,800,1280,15.72330189,yes,Exp_10_working.osexp,C:\Users\russe\Dropbox,no,mono,no,32,no,#ffffff,no,I confirm that my participation has been explained and consent to taking part in the experiment,NA,1,yes,800,mn,droid,41,15,21,C:/Users/russe/Dropbox/Exp_10/New folder/subject-4.csv,droid,Jazzy James,3.1.7,0,21,NA,1,NA,1,1,NA,21,415,NA,1286,NA,695,769,NA,415,2,legacy,Female,1024,2,48000,-16,experiment,4,even,droid,5351,NA,NA,43945,44364,9372,11355,NA,43946,21643,NA,NA,NA,NA,2402,NA,NA,44364,NA,10659,20873,NA,43947,Runtime for Android template,42,19900,42,0.11111,no,1280,-0.355458367
100,100,22,473.1395349,473.1395349,#000000,no,1,droid,legacy,legacy,0,I confirm that my participation has been explained and consent to taking part in the experiment,relative,1,undefined,undefined,1,0,1,0,58,58,0,0,0,58,0,0,0,0,0,0,NA,0,58,0,0,0,NA,58,956,371,04/09/2018 10:17,A template containing a practice and an experimental phase,96,no,800,1280,15.72330189,yes,Exp_10_working.osexp,C:\Users\russe\Dropbox,no,mono,no,32,no,#ffffff,no,I confirm that my participation has been explained and consent to taking part in the experiment,NA,4,yes,800,nh,droid,42,15,11,C:/Users/russe/Dropbox/Exp_10/New folder/subject-4.csv,droid,Jazzy James,3.1.7,0,11,NA,1,NA,1,1,NA,11,445,NA,1286,NA,695,769,NA,445,2,legacy,Female,1024,2,48000,-16,experiment,4,even,droid,5351,NA,NA,44419,44869,9372,11355,NA,44421,21643,NA,NA,NA,NA,2402,NA,NA,44869,NA,10659,20873,NA,44421,Runtime for Android template,43,20345,43,0.8,no,1280,-0.046473986
97.72727273,97.72727273,22,472.25,472.25,#000000,no,1,droid,legacy,legacy,0,I confirm that my participation has been explained and consent to taking part in the experiment,relative,0,undefined,undefined,0,0,1,0,59,59,0,0,0,59,0,0,0,0,0,0,NA,0,59,0,0,0,NA,59,1086,525,04/09/2018 10:17,A template containing a practice and an experimental phase,96,no,800,1280,15.72330189,yes,Exp_10_working.osexp,C:\Users\russe\Dropbox,no,mono,no,32,no,#ffffff,no,I confirm that my participation has been explained and consent to taking part in the experiment,NA,1,yes,800,hl,droid,43,15,17,C:/Users/russe/Dropbox/Exp_10/New folder/subject-4.csv,droid,Jazzy James,3.1.7,0,18,NA,1,NA,1,1,NA,18,434,NA,1286,NA,695,769,NA,434,2,legacy,Female,1024,2,48000,-16,experiment,4,even,droid,5351,NA,NA,44935,45372,9372,11355,NA,44936,21643,NA,NA,NA,NA,2402,NA,NA,45372,NA,10659,20873,NA,44936,Runtime for Android template,43,20779,44,0.07692,no,1280,-0.159768259
97.77777778,97.77777778,22,469.6666667,469.6666667,#000000,no,1,droid,legacy,legacy,0,I confirm that my participation has been explained and consent to taking part in the experiment,relative,1,undefined,undefined,1,0,1,0,60,60,0,0,0,60,0,0,0,0,0,0,NA,0,60,0,0,0,NA,60,713,526,04/09/2018 10:17,A template containing a practice and an experimental phase,96,no,800,1280,15.72330189,yes,Exp_10_working.osexp,C:\Users\russe\Dropbox,no,mono,no,32,no,#ffffff,no,I confirm that my participation has been explained and consent to taking part in the experiment,NA,1,yes,800,lk,droid,44,15,16,C:/Users/russe/Dropbox/Exp_10/New folder/subject-4.csv,droid,Jazzy James,3.1.7,0,16,NA,1,NA,1,1,NA,16,356,NA,1286,NA,695,769,NA,356,2,legacy,Female,1024,2,48000,-16,experiment,4,even,droid,5351,NA,NA,45436,45797,9372,11355,NA,45438,21643,NA,NA,NA,NA,2402,NA,NA,45797,NA,10659,20873,NA,45438,Runtime for Android template,44,21135,45,0.25,no,1280,-0.96312765
97.82608696,97.82608696,22,469.7173913,469.7173913,#000000,no,1,droid,legacy,legacy,0,I confirm that my participation has been explained and consent to taking part in the experiment,relative,1,undefined,undefined,1,0,1,0,61,61,0,0,0,61,0,0,0,0,0,0,NA,0,61,0,0,0,NA,61,835,520,04/09/2018 10:17,A template containing a practice and an experimental phase,96,no,800,1280,15.72330189,yes,Exp_10_working.osexp,C:\Users\russe\Dropbox,no,mono,no,32,no,#ffffff,no,I confirm that my participation has been explained and consent to taking part in the experiment,NA,1,yes,800,kk,droid,45,15,16,C:/Users/russe/Dropbox/Exp_10/New folder/subject-4.csv,droid,Jazzy James,3.1.7,0,16,NA,1,NA,1,1,NA,16,472,NA,1286,NA,695,769,NA,472,2,legacy,Female,1024,2,48000,-16,experiment,4,even,droid,5351,NA,NA,45856,46332,9372,11355,NA,45858,21643,NA,NA,NA,NA,2402,NA,NA,46332,NA,10659,20873,NA,45858,Runtime for Android template,45,21607,46,0.125,no,1280,0.231611957
97.87234043,97.87234043,22,468.3191489,468.3191489,#000000,no,1,droid,legacy,legacy,0,I confirm that my participation has been explained and consent to taking part in the experiment,relative,1,undefined,undefined,1,0,1,0,62,62,0,0,0,62,0,0,0,0,0,0,NA,0,62,0,0,0,NA,62,1014,339,04/09/2018 10:17,A template containing a practice and an experimental phase,96,no,800,1280,15.72330189,yes,Exp_10_working.osexp,C:\Users\russe\Dropbox,no,mono,no,32,no,#ffffff,no,I confirm that my participation has been explained and consent to taking part in the experiment,NA,2,yes,800,kh,droid,46,15,11,C:/Users/russe/Dropbox/Exp_10/New folder/subject-4.csv,droid,Jazzy James,3.1.7,0,11,NA,1,NA,1,1,NA,11,404,NA,1286,NA,695,769,NA,404,2,legacy,Female,1024,2,48000,-16,experiment,4,even,droid,5351,NA,NA,46420,46828,9372,11355,NA,46422,21643,NA,NA,NA,NA,2402,NA,NA,46828,NA,10659,20873,NA,46422,Runtime for Android template,46,22011,47,0.25,no,1280,-0.46875264
97.91666667,97.91666667,22,467.9166667,467.9166667,#000000,no,1,droid,legacy,legacy,0,I confirm that my participation has been explained and consent to taking part in the experiment,relative,1,undefined,undefined,1,0,1,0,63,63,0,0,0,63,0,0,0,0,0,0,NA,0,63,0,0,0,NA,63,662,103,04/09/2018 10:17,A template containing a practice and an experimental phase,96,no,800,1280,15.72330189,yes,Exp_10_working.osexp,C:\Users\russe\Dropbox,no,mono,no,32,no,#ffffff,no,I confirm that my participation has been explained and consent to taking part in the experiment,NA,1,yes,800,hd,droid,47,15,4,C:/Users/russe/Dropbox/Exp_10/New folder/subject-4.csv,droid,Jazzy James,3.1.7,0,4,NA,1,NA,1,1,NA,4,449,NA,1286,NA,695,769,NA,449,2,legacy,Female,1024,2,48000,-16,experiment,4,even,droid,5351,NA,NA,46888,47340,9372,11355,NA,46889,21643,NA,NA,NA,NA,2402,NA,NA,47340,NA,10659,20873,NA,46889,Runtime for Android template,47,22460,48,0.07692,no,1280,-0.005276068
97.95918367,97.95918367,22,468.244898,468.244898,#000000,no,1,droid,legacy,legacy,0,I confirm that my participation has been explained and consent to taking part in the experiment,relative,1,undefined,undefined,1,0,1,0,64,64,0,0,0,64,0,0,0,0,0,0,NA,0,64,0,0,0,NA,64,814,652,04/09/2018 10:17,A template containing a practice and an experimental phase,96,no,800,1280,15.72330189,yes,Exp_10_working.osexp,C:\Users\russe\Dropbox,no,mono,no,32,no,#ffffff,no,I confirm that my participation has been explained and consent to taking part in the experiment,NA,1,yes,800,do,droid,48,15,22,C:/Users/russe/Dropbox/Exp_10/New folder/subject-4.csv,droid,Jazzy James,3.1.7,0,22,NA,1,NA,1,1,NA,22,484,NA,1286,NA,695,769,NA,484,2,legacy,Female,1024,2,48000,-16,experiment,4,even,droid,5351,NA,NA,47396,47885,9372,11355,NA,47398,21643,NA,NA,NA,NA,2402,NA,NA,47885,NA,10659,20873,NA,47398,Runtime for Android template,48,22944,49,0.33333,no,1280,0.35520571
98,98,22,467.82,467.82,#000000,no,1,droid,legacy,legacy,0,I confirm that my participation has been explained and consent to taking part in the experiment,relative,1,undefined,undefined,1,0,1,0,65,65,0,0,0,65,0,0,0,0,0,0,NA,0,65,0,0,0,NA,65,570,715,04/09/2018 10:17,A template containing a practice and an experimental phase,96,no,800,1280,15.72330189,yes,Exp_10_working.osexp,C:\Users\russe\Dropbox,no,mono,no,32,no,#ffffff,no,I confirm that my participation has been explained and consent to taking part in the experiment,NA,1,yes,800,on,droid,49,15,21,C:/Users/russe/Dropbox/Exp_10/New folder/subject-4.csv,droid,Jazzy James,3.1.7,0,21,NA,1,NA,1,1,NA,21,447,NA,1286,NA,695,769,NA,447,2,legacy,Female,1024,2,48000,-16,experiment,4,even,droid,5351,NA,NA,48049,48500,9372,11355,NA,48051,21643,NA,NA,NA,NA,2402,NA,NA,48500,NA,10659,20873,NA,48051,Runtime for Android template,49,23391,50,0.0625,no,1280,-0.025875027
98.03921569,98.03921569,22,465.9019608,465.9019608,#000000,no,1,droid,legacy,legacy,0,I confirm that my participation has been explained and consent to taking part in the experiment,relative,1,undefined,undefined,1,0,1,0,66,66,0,0,0,66,0,0,0,0,0,0,NA,0,66,0,0,0,NA,66,806,472,04/09/2018 10:17,A template containing a practice and an experimental phase,96,no,800,1280,15.72330189,yes,Exp_10_working.osexp,C:\Users\russe\Dropbox,no,mono,no,32,no,#ffffff,no,I confirm that my participation has been explained and consent to taking part in the experiment,NA,1,yes,800,nk,droid,50,15,16,C:/Users/russe/Dropbox/Exp_10/New folder/subject-4.csv,droid,Jazzy James,3.1.7,0,16,NA,1,NA,1,1,NA,16,370,NA,1286,NA,695,769,NA,370,2,legacy,Female,1024,2,48000,-16,experiment,4,even,droid,5351,NA,NA,48646,49021,9372,11355,NA,48648,21643,NA,NA,NA,NA,2402,NA,NA,49021,NA,10659,20873,NA,48648,Runtime for Android template,50,23761,51,0.2,no,1280,-0.818934938
96.15384615,96.15384615,22,465.0192308,465.0192308,#000000,no,1,droid,legacy,legacy,0,I confirm that my participation has been explained and consent to taking part in the experiment,relative,0,undefined,undefined,0,0,1,0,67,67,0,0,0,67,0,0,0,0,0,0,NA,0,67,0,0,0,NA,67,508,305,04/09/2018 10:17,A template containing a practice and an experimental phase,96,no,800,1280,15.72330189,yes,Exp_10_working.osexp,C:\Users\russe\Dropbox,no,mono,no,32,no,#ffffff,no,I confirm that my participation has been explained and consent to taking part in the experiment,NA,1,yes,800,ke,droid,51,15,8,C:/Users/russe/Dropbox/Exp_10/New folder/subject-4.csv,droid,Jazzy James,3.1.7,0,9,NA,1,NA,1,1,NA,9,420,NA,1286,NA,695,769,NA,420,2,legacy,Female,1024,2,48000,-16,experiment,4,even,droid,5351,NA,NA,49084,49509,9372,11355,NA,49086,21643,NA,NA,NA,NA,2402,NA,NA,49509,NA,10659,20873,NA,49086,Runtime for Android template,50,24181,52,0.125,no,1280,-0.30396097
96.22641509,96.22641509,22,465.3584906,465.3584906,#000000,no,1,droid,legacy,legacy,0,I confirm that my participation has been explained and consent to taking part in the experiment,relative,1,undefined,undefined,1,0,1,0,68,68,0,0,0,68,0,0,0,0,0,0,NA,0,68,0,0,0,NA,68,748,606,04/09/2018 10:17,A template containing a practice and an experimental phase,96,no,800,1280,15.72330189,yes,Exp_10_working.osexp,C:\Users\russe\Dropbox,no,mono,no,32,no,#ffffff,no,I confirm that my participation has been explained and consent to taking part in the experiment,NA,1,yes,800,eo,droid,52,15,22,C:/Users/russe/Dropbox/Exp_10/New folder/subject-4.csv,droid,Jazzy James,3.1.7,0,22,NA,1,NA,1,1,NA,22,483,NA,1286,NA,695,769,NA,483,2,legacy,Female,1024,2,48000,-16,experiment,4,even,droid,5351,NA,NA,49565,50052,9372,11355,NA,49567,21643,NA,NA,NA,NA,2402,NA,NA,50052,NA,10659,20873,NA,49567,Runtime for Android template,51,24664,53,0.08333,no,1280,0.344906231
94.44444444,94.44444444,22,466.7037037,466.7037037,#000000,no,1,droid,legacy,legacy,0,I confirm that my participation has been explained and consent to taking part in the experiment,relative,0,undefined,undefined,0,0,1,0,69,69,0,0,0,69,0,0,0,0,0,0,NA,0,69,0,0,0,NA,69,375,207,04/09/2018 10:17,A template containing a practice and an experimental phase,96,no,800,1280,15.72330189,yes,Exp_10_working.osexp,C:\Users\russe\Dropbox,no,mono,no,32,no,#ffffff,no,I confirm that my participation has been explained and consent to taking part in the experiment,NA,4,yes,800,oa,droid,53,15,2,C:/Users/russe/Dropbox/Exp_10/New folder/subject-4.csv,droid,Jazzy James,3.1.7,0,8,NA,1,NA,1,1,NA,8,538,NA,1286,NA,695,769,NA,538,2,legacy,Female,1024,2,48000,-16,experiment,4,even,droid,5351,NA,NA,50111,50652,9372,11355,NA,50112,21643,NA,NA,NA,NA,2402,NA,NA,50652,NA,10659,20873,NA,50112,Runtime for Android template,51,25202,54,0.25,no,1280,0.911377596
94.54545455,94.54545455,22,465.9272727,465.9272727,#000000,no,1,droid,legacy,legacy,0,I confirm that my participation has been explained and consent to taking part in the experiment,relative,1,undefined,undefined,1,0,1,0,70,70,0,0,0,70,0,0,0,0,0,0,NA,0,70,0,0,0,NA,70,394,342,04/09/2018 10:17,A template containing a practice and an experimental phase,96,no,800,1280,15.72330189,yes,Exp_10_working.osexp,C:\Users\russe\Dropbox,no,mono,no,32,no,#ffffff,no,I confirm that my participation has been explained and consent to taking part in the experiment,NA,1,yes,800,ae,droid,54,15,8,C:/Users/russe/Dropbox/Exp_10/New folder/subject-4.csv,droid,Jazzy James,3.1.7,0,8,NA,1,NA,1,1,NA,8,424,NA,1286,NA,695,769,NA,424,2,legacy,Female,1024,2,48000,-16,experiment,4,even,droid,5351,NA,NA,50705,51132,9372,11355,NA,50706,21643,NA,NA,NA,NA,2402,NA,NA,51132,NA,10659,20873,NA,50706,Runtime for Android template,52,25626,55,0.16667,no,1280,-0.262763052
94.64285714,94.64285714,22,465.4464286,465.4464286,#000000,no,1,droid,legacy,legacy,0,I confirm that my participation has been explained and consent to taking part in the experiment,relative,1,undefined,undefined,1,0,1,0,71,71,0,0,0,71,0,0,0,0,0,0,NA,0,71,0,0,0,NA,71,326,688,04/09/2018 10:17,A template containing a practice and an experimental phase,96,no,800,1280,15.72330189,yes,Exp_10_working.osexp,C:\Users\russe\Dropbox,no,mono,no,32,no,#ffffff,no,I confirm that my participation has been explained and consent to taking part in the experiment,NA,1,yes,800,em,droid,55,15,20,C:/Users/russe/Dropbox/Exp_10/New folder/subject-4.csv,droid,Jazzy James,3.1.7,0,20,NA,1,NA,1,1,NA,20,439,NA,1286,NA,695,769,NA,439,2,legacy,Female,1024,2,48000,-16,experiment,4,even,droid,5351,NA,NA,51193,51636,9372,11355,NA,51195,21643,NA,NA,NA,NA,2402,NA,NA,51636,NA,10659,20873,NA,51195,Runtime for Android template,53,26065,56,0.08333,no,1280,-0.108270862
94.73684211,94.73684211,22,464.7192982,464.7192982,#000000,no,1,droid,legacy,legacy,0,I confirm that my participation has been explained and consent to taking part in the experiment,relative,1,undefined,undefined,1,0,1,0,72,72,0,0,0,72,0,0,0,0,0,0,NA,0,72,0,0,0,NA,72,742,720,04/09/2018 10:17,A template containing a practice and an experimental phase,96,no,800,1280,15.72330189,yes,Exp_10_working.osexp,C:\Users\russe\Dropbox,no,mono,no,32,no,#ffffff,no,I confirm that my participation has been explained and consent to taking part in the experiment,NA,2,yes,800,mo,droid,56,15,22,C:/Users/russe/Dropbox/Exp_10/New folder/subject-4.csv,droid,Jazzy James,3.1.7,0,22,NA,1,NA,1,1,NA,22,424,NA,1286,NA,695,769,NA,424,2,legacy,Female,1024,2,48000,-16,experiment,4,even,droid,5351,NA,NA,51696,52124,9372,11355,NA,51698,21643,NA,NA,NA,NA,2402,NA,NA,52124,NA,10659,20873,NA,51698,Runtime for Android template,54,26489,57,0.22222,no,1280,-0.262763052
94.82758621,94.82758621,22,463.6206897,463.6206897,#000000,no,1,droid,legacy,legacy,0,I confirm that my participation has been explained and consent to taking part in the experiment,relative,1,undefined,undefined,1,0,1,0,73,73,0,0,0,73,0,0,0,0,0,0,NA,0,73,0,0,0,NA,73,761,693,04/09/2018 10:17,A template containing a practice and an experimental phase,96,no,800,1280,15.72330189,yes,Exp_10_working.osexp,C:\Users\russe\Dropbox,no,mono,no,32,no,#ffffff,no,I confirm that my participation has been explained and consent to taking part in the experiment,NA,1,yes,800,oo,droid,57,15,22,C:/Users/russe/Dropbox/Exp_10/New folder/subject-4.csv,droid,Jazzy James,3.1.7,0,22,NA,1,NA,1,1,NA,22,401,NA,1286,NA,695,769,NA,401,2,legacy,Female,1024,2,48000,-16,experiment,4,even,droid,5351,NA,NA,52184,52589,9372,11355,NA,52186,21643,NA,NA,NA,NA,2402,NA,NA,52589,NA,10659,20873,NA,52186,Runtime for Android template,55,26890,58,0.0625,no,1280,-0.499651078
94.91525424,94.91525424,22,463.4745763,463.4745763,#000000,no,1,droid,legacy,legacy,0,I confirm that my participation has been explained and consent to taking part in the experiment,relative,1,undefined,undefined,1,0,1,0,74,74,0,0,0,74,0,0,0,0,0,0,NA,0,74,0,0,0,NA,74,1047,705,04/09/2018 10:17,A template containing a practice and an experimental phase,96,no,800,1280,15.72330189,yes,Exp_10_working.osexp,C:\Users\russe\Dropbox,no,mono,no,32,no,#ffffff,no,I confirm that my participation has been explained and consent to taking part in the experiment,NA,1,yes,800,op,droid,58,15,23,C:/Users/russe/Dropbox/Exp_10/New folder/subject-4.csv,droid,Jazzy James,3.1.7,0,23,NA,1,NA,1,1,NA,23,455,NA,1286,NA,695,769,NA,455,2,legacy,Female,1024,2,48000,-16,experiment,4,even,droid,5351,NA,NA,52649,53109,9372,11355,NA,52651,21643,NA,NA,NA,NA,2402,NA,NA,53109,NA,10659,20873,NA,52651,Runtime for Android template,56,27345,59,0.0625,no,1280,0.056520808
95,95,22,464.1666667,464.1666667,#000000,no,1,droid,legacy,legacy,0,I confirm that my participation has been explained and consent to taking part in the experiment,relative,1,undefined,undefined,1,0,1,0,75,75,0,0,0,75,0,0,0,0,0,0,NA,0,75,0,0,0,NA,75,771,327,04/09/2018 10:17,A template containing a practice and an experimental phase,96,no,800,1280,15.72330189,yes,Exp_10_working.osexp,C:\Users\russe\Dropbox,no,mono,no,32,no,#ffffff,no,I confirm that my participation has been explained and consent to taking part in the experiment,NA,1,yes,800,pg,droid,59,15,10,C:/Users/russe/Dropbox/Exp_10/New folder/subject-4.csv,droid,Jazzy James,3.1.7,0,10,NA,1,NA,1,1,NA,10,505,NA,1286,NA,695,769,NA,505,2,legacy,Female,1024,2,48000,-16,experiment,4,even,droid,5351,NA,NA,53175,53684,9372,11355,NA,53177,21643,NA,NA,NA,NA,2402,NA,NA,53684,NA,10659,20873,NA,53177,Runtime for Android template,57,27850,60,0.2,no,1280,0.571494777
95.08196721,95.08196721,22,464.0983607,464.0983607,#000000,no,1,droid,legacy,legacy,0,I confirm that my participation has been explained and consent to taking part in the experiment,relative,1,undefined,undefined,1,0,1,0,76,76,0,0,0,76,0,0,0,0,0,0,NA,0,76,0,0,0,NA,76,409,604,04/09/2018 10:17,A template containing a practice and an experimental phase,96,no,800,1280,15.72330189,yes,Exp_10_working.osexp,C:\Users\russe\Dropbox,no,mono,no,32,no,#ffffff,no,I confirm that my participation has been explained and consent to taking part in the experiment,NA,1,yes,800,gm,droid,60,15,20,C:/Users/russe/Dropbox/Exp_10/New folder/subject-4.csv,droid,Jazzy James,3.1.7,0,20,NA,1,NA,1,1,NA,20,460,NA,1286,NA,695,769,NA,460,2,legacy,Female,1024,2,48000,-16,experiment,4,even,droid,5351,NA,NA,53740,54204,9372,11355,NA,53742,21643,NA,NA,NA,NA,2402,NA,NA,54204,NA,10659,20873,NA,53742,Runtime for Android template,58,28310,61,0.2,no,1280,0.108018205
95.16129032,95.16129032,22,463.6451613,463.6451613,#000000,no,1,droid,legacy,legacy,0,I confirm that my participation has been explained and consent to taking part in the experiment,relative,1,undefined,undefined,1,0,1,0,77,77,0,0,0,77,0,0,0,0,0,0,NA,0,77,0,0,0,NA,77,331,231,04/09/2018 10:17,A template containing a practice and an experimental phase,96,no,800,1280,15.72330189,yes,Exp_10_working.osexp,C:\Users\russe\Dropbox,no,mono,no,32,no,#ffffff,no,I confirm that my participation has been explained and consent to taking part in the experiment,NA,2,yes,800,me,droid,61,15,8,C:/Users/russe/Dropbox/Exp_10/New folder/subject-4.csv,droid,Jazzy James,3.1.7,0,8,NA,1,NA,1,1,NA,8,436,NA,1286,NA,695,769,NA,436,2,legacy,Female,1024,2,48000,-16,experiment,4,even,droid,5351,NA,NA,54261,54701,9372,11355,NA,54262,21643,NA,NA,NA,NA,2402,NA,NA,54701,NA,10659,20873,NA,54262,Runtime for Android template,59,28746,62,0.22222,no,1280,-0.1391693
95.23809524,95.23809524,22,463.2222222,463.2222222,#000000,no,1,droid,legacy,legacy,0,I confirm that my participation has been explained and consent to taking part in the experiment,relative,1,undefined,undefined,1,0,1,0,78,78,0,0,0,78,0,0,0,0,0,0,NA,0,78,0,0,0,NA,78,753,154,04/09/2018 10:17,A template containing a practice and an experimental phase,96,no,800,1280,15.72330189,yes,Exp_10_working.osexp,C:\Users\russe\Dropbox,no,mono,no,32,no,#ffffff,no,I confirm that my participation has been explained and consent to taking part in the experiment,NA,1,yes,800,ed,droid,62,15,4,C:/Users/russe/Dropbox/Exp_10/New folder/subject-4.csv,droid,Jazzy James,3.1.7,0,4,NA,1,NA,1,1,NA,4,437,NA,1286,NA,695,769,NA,437,2,legacy,Female,1024,2,48000,-16,experiment,4,even,droid,5351,NA,NA,54755,55197,9372,11355,NA,54757,21643,NA,NA,NA,NA,2402,NA,NA,55197,NA,10659,20873,NA,54757,Runtime for Android template,60,29183,63,0.83333,no,1280,-0.128869821
95.3125,95.3125,22,464.234375,464.234375,#000000,no,1,droid,legacy,legacy,0,I confirm that my participation has been explained and consent to taking part in the experiment,relative,1,undefined,undefined,1,0,1,0,79,79,0,0,0,79,0,0,0,0,0,0,NA,0,79,0,0,0,NA,79,380,149,04/09/2018 10:17,A template containing a practice and an experimental phase,96,no,800,1280,15.72330189,yes,Exp_10_working.osexp,C:\Users\russe\Dropbox,no,mono,no,32,no,#ffffff,no,I confirm that my participation has been explained and consent to taking part in the experiment,NA,1,yes,800,da,droid,63,15,2,C:/Users/russe/Dropbox/Exp_10/New folder/subject-4.csv,droid,Jazzy James,3.1.7,0,2,NA,1,NA,1,1,NA,2,528,NA,1286,NA,695,769,NA,528,2,legacy,Female,1024,2,48000,-16,experiment,4,even,droid,5351,NA,NA,55256,55788,9372,11355,NA,55257,21643,NA,NA,NA,NA,2402,NA,NA,55788,NA,10659,20873,NA,55258,Runtime for Android template,61,29711,64,0.33333,no,1280,0.808382802
95.38461538,95.38461538,22,463.9692308,463.9692308,#000000,no,1,droid,legacy,legacy,0,I confirm that my participation has been explained and consent to taking part in the experiment,relative,1,undefined,undefined,1,0,1,0,80,80,0,0,0,80,0,0,0,0,0,0,NA,0,80,0,0,0,NA,80,549,144,04/09/2018 10:17,A template containing a practice and an experimental phase,96,no,800,1280,15.72330189,yes,Exp_10_working.osexp,C:\Users\russe\Dropbox,no,mono,no,32,no,#ffffff,no,I confirm that my participation has been explained and consent to taking part in the experiment,NA,2,yes,800,ab,droid,64,15,3,C:/Users/russe/Dropbox/Exp_10/New folder/subject-4.csv,droid,Jazzy James,3.1.7,0,3,NA,1,NA,1,1,NA,3,447,NA,1286,NA,695,769,NA,447,2,legacy,Female,1024,2,48000,-16,experiment,4,even,droid,5351,NA,NA,55865,56317,9372,11355,NA,55867,21643,NA,NA,NA,NA,2402,NA,NA,56317,NA,10659,20873,NA,55867,Runtime for Android template,62,30158,65,0.33333,no,1280,-0.025875027
95.45454545,95.45454545,22,465.030303,465.030303,#000000,no,1,droid,legacy,legacy,0,I confirm that my participation has been explained and consent to taking part in the experiment,relative,1,undefined,undefined,1,0,1,0,81,81,0,0,0,81,0,0,0,0,0,0,NA,0,81,0,0,0,NA,81,970,633,04/09/2018 10:17,A template containing a practice and an experimental phase,96,no,800,1280,15.72330189,yes,Exp_10_working.osexp,C:\Users\russe\Dropbox,no,mono,no,32,no,#ffffff,no,I confirm that my participation has been explained and consent to taking part in the experiment,NA,1,yes,800,bp,droid,65,15,23,C:/Users/russe/Dropbox/Exp_10/New folder/subject-4.csv,droid,Jazzy James,3.1.7,0,23,NA,1,NA,1,1,NA,23,534,NA,1286,NA,695,769,NA,534,2,legacy,Female,1024,2,48000,-16,experiment,4,even,droid,5351,NA,NA,56371,56908,9372,11355,NA,56372,21643,NA,NA,NA,NA,2402,NA,NA,56908,NA,10659,20873,NA,56372,Runtime for Android template,63,30692,66,0.125,no,1280,0.870179679
94.02985075,94.02985075,22,465.119403,465.119403,#000000,no,1,droid,legacy,legacy,0,I confirm that my participation has been explained and consent to taking part in the experiment,relative,0,undefined,undefined,0,0,1,0,82,82,0,0,0,82,0,0,0,0,0,0,NA,0,82,0,0,0,NA,82,173,218,04/09/2018 10:17,A template containing a practice and an experimental phase,96,no,800,1280,15.72330189,yes,Exp_10_working.osexp,C:\Users\russe\Dropbox,no,mono,no,32,no,#ffffff,no,I confirm that my participation has been explained and consent to taking part in the experiment,NA,1,yes,800,pe,droid,66,15,8,C:/Users/russe/Dropbox/Exp_10/New folder/subject-4.csv,droid,Jazzy James,3.1.7,0,7,NA,1,NA,1,1,NA,7,471,NA,1286,NA,695,769,NA,471,2,legacy,Female,1024,2,48000,-16,experiment,4,even,droid,5351,NA,NA,56977,57453,9372,11355,NA,56979,21643,NA,NA,NA,NA,2402,NA,NA,57453,NA,10659,20873,NA,56979,Runtime for Android template,63,31163,67,0.2,no,1280,0.221312478
94.11764706,94.11764706,22,462.8382353,462.8382353,#000000,no,1,droid,legacy,legacy,0,I confirm that my participation has been explained and consent to taking part in the experiment,relative,1,undefined,undefined,1,0,1,0,83,83,0,0,0,83,0,0,0,0,0,0,NA,0,83,0,0,0,NA,83,349,309,04/09/2018 10:17,A template containing a practice and an experimental phase,96,no,800,1280,15.72330189,yes,Exp_10_working.osexp,C:\Users\russe\Dropbox,no,mono,no,32,no,#ffffff,no,I confirm that my participation has been explained and consent to taking part in the experiment,NA,2,yes,800,ee,droid,67,15,8,C:/Users/russe/Dropbox/Exp_10/New folder/subject-4.csv,droid,Jazzy James,3.1.7,0,8,NA,1,NA,1,1,NA,8,310,NA,1286,NA,695,769,NA,310,2,legacy,Female,1024,2,48000,-16,experiment,4,even,droid,5351,NA,NA,57506,57821,9372,11355,NA,57507,21643,NA,NA,NA,NA,2402,NA,NA,57821,NA,10659,20873,NA,57508,Runtime for Android template,64,31473,68,0.16667,no,1280,-1.436903701
94.20289855,94.20289855,22,462.3188406,462.3188406,#000000,no,1,droid,legacy,legacy,0,I confirm that my participation has been explained and consent to taking part in the experiment,relative,1,undefined,undefined,1,0,1,0,84,84,0,0,0,84,0,0,0,0,0,0,NA,0,84,0,0,0,NA,84,546,137,04/09/2018 10:17,A template containing a practice and an experimental phase,96,no,800,1280,15.72330189,yes,Exp_10_working.osexp,C:\Users\russe\Dropbox,no,mono,no,32,no,#ffffff,no,I confirm that my participation has been explained and consent to taking part in the experiment,NA,1,yes,800,eb,droid,68,15,3,C:/Users/russe/Dropbox/Exp_10/New folder/subject-4.csv,droid,Jazzy James,3.1.7,0,3,NA,1,NA,1,1,NA,3,427,NA,1286,NA,695,769,NA,427,2,legacy,Female,1024,2,48000,-16,experiment,4,even,droid,5351,NA,NA,57877,58309,9372,11355,NA,57879,21643,NA,NA,NA,NA,2402,NA,NA,58309,NA,10659,20873,NA,57879,Runtime for Android template,65,31900,69,0.08333,no,1280,-0.231864614
94.28571429,94.28571429,22,461.8285714,461.8285714,#000000,no,1,droid,legacy,legacy,0,I confirm that my participation has been explained and consent to taking part in the experiment,relative,1,undefined,undefined,1,0,1,0,85,85,0,0,0,85,0,0,0,0,0,0,NA,0,85,0,0,0,NA,85,352,337,04/09/2018 10:17,A template containing a practice and an experimental phase,96,no,800,1280,15.72330189,yes,Exp_10_working.osexp,C:\Users\russe\Dropbox,no,mono,no,32,no,#ffffff,no,I confirm that my participation has been explained and consent to taking part in the experiment,NA,1,yes,800,be,droid,69,15,8,C:/Users/russe/Dropbox/Exp_10/New folder/subject-4.csv,droid,Jazzy James,3.1.7,0,8,NA,1,NA,1,1,NA,8,428,NA,1286,NA,695,769,NA,428,2,legacy,Female,1024,2,48000,-16,experiment,4,even,droid,5351,NA,NA,58365,58798,9372,11355,NA,58367,21643,NA,NA,NA,NA,2402,NA,NA,58798,NA,10659,20873,NA,58367,Runtime for Android template,66,32328,70,0.125,no,1280,-0.221565135
94.36619718,94.36619718,22,461.7887324,461.7887324,#000000,no,1,droid,legacy,legacy,0,I confirm that my participation has been explained and consent to taking part in the experiment,relative,1,undefined,undefined,1,0,1,0,86,86,0,0,0,86,0,0,0,0,0,0,NA,0,86,0,0,0,NA,86,622,153,04/09/2018 10:17,A template containing a practice and an experimental phase,96,no,800,1280,15.72330189,yes,Exp_10_working.osexp,C:\Users\russe\Dropbox,no,mono,no,32,no,#ffffff,no,I confirm that my participation has been explained and consent to taking part in the experiment,NA,2,yes,800,bb,droid,70,15,3,C:/Users/russe/Dropbox/Exp_10/New folder/subject-4.csv,droid,Jazzy James,3.1.7,0,3,NA,1,NA,1,1,NA,3,459,NA,1286,NA,695,769,NA,459,2,legacy,Female,1024,2,48000,-16,experiment,4,even,droid,5351,NA,NA,58909,59373,9372,11355,NA,58911,21643,NA,NA,NA,NA,2402,NA,NA,59373,NA,10659,20873,NA,58911,Runtime for Android template,67,32787,71,0.25,no,1280,0.097718726
94.44444444,94.44444444,22,461.9444444,461.9444444,#000000,no,1,droid,legacy,legacy,0,I confirm that my participation has been explained and consent to taking part in the experiment,relative,1,undefined,undefined,1,0,1,0,87,87,0,0,0,87,0,0,0,0,0,0,NA,0,87,0,0,0,NA,87,729,117,04/09/2018 10:17,A template containing a practice and an experimental phase,96,no,800,1280,15.72330189,yes,Exp_10_working.osexp,C:\Users\russe\Dropbox,no,mono,no,32,no,#ffffff,no,I confirm that my participation has been explained and consent to taking part in the experiment,NA,1,yes,800,bc,droid,71,15,4,C:/Users/russe/Dropbox/Exp_10/New folder/subject-4.csv,droid,Jazzy James,3.1.7,0,4,NA,1,NA,1,1,NA,4,473,NA,1286,NA,695,769,NA,473,2,legacy,Female,1024,2,48000,-16,experiment,4,even,droid,5351,NA,NA,59431,59908,9372,11355,NA,59433,21643,NA,NA,NA,NA,2402,NA,NA,59909,NA,10659,20873,NA,59433,Runtime for Android template,68,33260,72,0.125,no,1280,0.241911437
94.52054795,94.52054795,22,461.7260274,461.7260274,#000000,no,1,droid,legacy,legacy,0,I confirm that my participation has been explained and consent to taking part in the experiment,relative,1,undefined,undefined,1,0,1,0,88,88,0,0,0,88,0,0,0,0,0,0,NA,0,88,0,0,0,NA,88,792,609,04/09/2018 10:17,A template containing a practice and an experimental phase,96,no,800,1280,15.72330189,yes,Exp_10_working.osexp,C:\Users\russe\Dropbox,no,mono,no,32,no,#ffffff,no,I confirm that my participation has been explained and consent to taking part in the experiment,NA,3,yes,800,co,droid,72,15,22,C:/Users/russe/Dropbox/Exp_10/New folder/subject-4.csv,droid,Jazzy James,3.1.7,0,22,NA,1,NA,1,1,NA,22,446,NA,1286,NA,695,769,NA,446,2,legacy,Female,1024,2,48000,-16,experiment,4,even,droid,5351,NA,NA,59962,60412,9372,11355,NA,59964,21643,NA,NA,NA,NA,2402,NA,NA,60412,NA,10659,20873,NA,59964,Runtime for Android template,69,33706,73,0.3,no,1280,-0.036174506
94.59459459,94.59459459,22,462.7027027,462.7027027,#000000,no,1,droid,legacy,legacy,0,I confirm that my participation has been explained and consent to taking part in the experiment,relative,1,undefined,undefined,1,0,1,0,89,89,0,0,0,89,0,0,0,0,0,0,NA,0,89,0,0,0,NA,89,303,133,04/09/2018 10:17,A template containing a practice and an experimental phase,96,no,800,1280,15.72330189,yes,Exp_10_working.osexp,C:\Users\russe\Dropbox,no,mono,no,32,no,#ffffff,no,I confirm that my participation has been explained and consent to taking part in the experiment,NA,4,yes,800,oa,droid,73,15,2,C:/Users/russe/Dropbox/Exp_10/New folder/subject-4.csv,droid,Jazzy James,3.1.7,0,2,NA,1,NA,1,1,NA,2,534,NA,1286,NA,695,769,NA,534,2,legacy,Female,1024,2,48000,-16,experiment,4,even,droid,5351,NA,NA,60474,61012,9372,11355,NA,60476,21643,NA,NA,NA,NA,2402,NA,NA,61012,NA,10659,20873,NA,60476,Runtime for Android template,70,34240,74,0.25,no,1280,0.870179679
94.66666667,94.66666667,22,462.4266667,462.4266667,#000000,no,1,droid,legacy,legacy,0,I confirm that my participation has been explained and consent to taking part in the experiment,relative,1,undefined,undefined,1,0,1,0,90,90,0,0,0,90,0,0,0,0,0,0,NA,0,90,0,0,0,NA,90,802,743,04/09/2018 10:17,A template containing a practice and an experimental phase,96,no,800,1280,15.72330189,yes,Exp_10_working.osexp,C:\Users\russe\Dropbox,no,mono,no,32,no,#ffffff,no,I confirm that my participation has been explained and consent to taking part in the experiment,NA,2,yes,800,ao,droid,74,15,22,C:/Users/russe/Dropbox/Exp_10/New folder/subject-4.csv,droid,Jazzy James,3.1.7,0,22,NA,1,NA,1,1,NA,22,442,NA,1286,NA,695,769,NA,442,2,legacy,Female,1024,2,48000,-16,experiment,4,even,droid,5351,NA,NA,61071,61516,9372,11355,NA,61072,21643,NA,NA,NA,NA,2402,NA,NA,61516,NA,10659,20873,NA,61072,Runtime for Android template,71,34682,75,0.33333,no,1280,-0.077372424
93.42105263,93.42105263,22,462.5921053,462.5921053,#000000,no,1,droid,legacy,legacy,0,I confirm that my participation has been explained and consent to taking part in the experiment,relative,0,undefined,undefined,0,0,1,0,91,91,0,0,0,91,0,0,0,0,0,0,NA,0,91,0,0,0,NA,91,694,218,04/09/2018 10:17,A template containing a practice and an experimental phase,96,no,800,1280,15.72330189,yes,Exp_10_working.osexp,C:\Users\russe\Dropbox,no,mono,no,32,no,#ffffff,no,I confirm that my participation has been explained and consent to taking part in the experiment,NA,2,yes,800,oc,droid,75,15,4,C:/Users/russe/Dropbox/Exp_10/New folder/subject-4.csv,droid,Jazzy James,3.1.7,0,10,NA,1,NA,1,1,NA,10,475,NA,1286,NA,695,769,NA,475,2,legacy,Female,1024,2,48000,-16,experiment,4,even,droid,5351,NA,NA,61573,62052,9372,11355,NA,61575,21643,NA,NA,NA,NA,2402,NA,NA,62052,NA,10659,20873,NA,61575,Runtime for Android template,71,35157,76,0.125,no,1280,0.262510396
93.50649351,93.50649351,22,461.5714286,461.5714286,#000000,no,1,droid,legacy,legacy,0,I confirm that my participation has been explained and consent to taking part in the experiment,relative,1,undefined,undefined,1,0,1,0,92,92,0,0,0,92,0,0,0,0,0,0,NA,0,92,0,0,0,NA,92,773,432,04/09/2018 10:17,A template containing a practice and an experimental phase,96,no,800,1280,15.72330189,yes,Exp_10_working.osexp,C:\Users\russe\Dropbox,no,mono,no,32,no,#ffffff,no,I confirm that my participation has been explained and consent to taking part in the experiment,NA,1,yes,800,ck,droid,76,15,16,C:/Users/russe/Dropbox/Exp_10/New folder/subject-4.csv,droid,Jazzy James,3.1.7,0,16,NA,1,NA,1,1,NA,16,384,NA,1286,NA,695,769,NA,384,2,legacy,Female,1024,2,48000,-16,experiment,4,even,droid,5351,NA,NA,62120,62510,9372,11355,NA,62122,21643,NA,NA,NA,NA,2402,NA,NA,62510,NA,10659,20873,NA,62122,Runtime for Android template,72,35541,77,0.1,no,1280,-0.674742227
93.58974359,93.58974359,22,461.3461538,461.3461538,#000000,no,1,droid,legacy,legacy,0,I confirm that my participation has been explained and consent to taking part in the experiment,relative,1,undefined,undefined,1,0,1,0,93,93,0,0,0,93,0,0,0,0,0,0,NA,0,93,0,0,0,NA,93,709,382,04/09/2018 10:17,A template containing a practice and an experimental phase,96,no,800,1280,15.72330189,yes,Exp_10_working.osexp,C:\Users\russe\Dropbox,no,mono,no,32,no,#ffffff,no,I confirm that my participation has been explained and consent to taking part in the experiment,NA,1,yes,800,kg,droid,77,15,10,C:/Users/russe/Dropbox/Exp_10/New folder/subject-4.csv,droid,Jazzy James,3.1.7,0,10,NA,1,NA,1,1,NA,10,444,NA,1286,NA,695,769,NA,444,2,legacy,Female,1024,2,48000,-16,experiment,4,even,droid,5351,NA,NA,62572,63021,9372,11355,NA,62574,21643,NA,NA,NA,NA,2402,NA,NA,63021,NA,10659,20873,NA,62574,Runtime for Android template,73,35985,78,0.125,no,1280,-0.056773465
93.67088608,93.67088608,22,459.7721519,459.7721519,#000000,no,1,droid,legacy,legacy,0,I confirm that my participation has been explained and consent to taking part in the experiment,relative,1,undefined,undefined,1,0,1,0,94,94,0,0,0,94,0,0,0,0,0,0,NA,0,94,0,0,0,NA,94,566,651,04/09/2018 10:17,A template containing a practice and an experimental phase,96,no,800,1280,15.72330189,yes,Exp_10_working.osexp,C:\Users\russe\Dropbox,no,mono,no,32,no,#ffffff,no,I confirm that my participation has been explained and consent to taking part in the experiment,NA,1,yes,800,gn,droid,78,15,21,C:/Users/russe/Dropbox/Exp_10/New folder/subject-4.csv,droid,Jazzy James,3.1.7,0,21,NA,1,NA,1,1,NA,21,337,NA,1286,NA,695,769,NA,337,2,legacy,Female,1024,2,48000,-16,experiment,4,even,droid,5351,NA,NA,63079,63421,9372,11355,NA,63081,21643,NA,NA,NA,NA,2402,NA,NA,63421,NA,10659,20873,NA,63081,Runtime for Android template,74,36322,79,0.2,no,1280,-1.158817758
93.75,93.75,22,460.5875,460.5875,#000000,no,1,droid,legacy,legacy,0,I confirm that my participation has been explained and consent to taking part in the experiment,relative,1,undefined,undefined,1,0,1,0,95,95,0,0,0,95,0,0,0,0,0,0,NA,0,95,0,0,0,NA,95,971,284,04/09/2018 10:17,A template containing a practice and an experimental phase,96,no,800,1280,15.72330189,yes,Exp_10_working.osexp,C:\Users\russe\Dropbox,no,mono,no,32,no,#ffffff,no,I confirm that my participation has been explained and consent to taking part in the experiment,NA,4,yes,800,nh,droid,79,15,11,C:/Users/russe/Dropbox/Exp_10/New folder/subject-4.csv,droid,Jazzy James,3.1.7,0,11,NA,1,NA,1,1,NA,11,525,NA,1286,NA,695,769,NA,525,2,legacy,Female,1024,2,48000,-16,experiment,4,even,droid,5351,NA,NA,63515,64045,9372,11355,NA,63517,21643,NA,NA,NA,NA,2402,NA,NA,64045,NA,10659,20873,NA,63517,Runtime for Android template,75,36847,80,0.8,no,1280,0.777484364
93.82716049,93.82716049,22,460.654321,460.654321,#000000,no,1,droid,legacy,legacy,0,I confirm that my participation has been explained and consent to taking part in the experiment,relative,1,undefined,undefined,1,0,1,0,96,96,0,0,0,96,0,0,0,0,0,0,NA,0,96,0,0,0,NA,96,959,321,04/09/2018 10:17,A template containing a practice and an experimental phase,96,no,800,1280,15.72330189,yes,Exp_10_working.osexp,C:\Users\russe\Dropbox,no,mono,no,32,no,#ffffff,no,I confirm that my participation has been explained and consent to taking part in the experiment,NA,1,yes,800,hn,droid,80,15,11,C:/Users/russe/Dropbox/Exp_10/New folder/subject-4.csv,droid,Jazzy James,3.1.7,0,11,NA,1,NA,1,1,NA,11,466,NA,1286,NA,695,769,NA,466,2,legacy,Female,1024,2,48000,-16,experiment,4,even,droid,5351,NA,NA,64111,64580,9372,11355,NA,64112,21643,NA,NA,NA,NA,2402,NA,NA,64580,NA,10659,20873,NA,64112,Runtime for Android template,76,37313,81,0.07692,no,1280,0.169815081
93.90243902,93.90243902,22,459.9512195,459.9512195,#000000,no,1,droid,legacy,legacy,0,I confirm that my participation has been explained and consent to taking part in the experiment,relative,1,undefined,undefined,1,0,1,0,97,97,0,0,0,97,0,0,0,0,0,0,NA,0,97,0,0,0,NA,97,583,661,04/09/2018 10:17,A template containing a practice and an experimental phase,96,no,800,1280,15.72330189,yes,Exp_10_working.osexp,C:\Users\russe\Dropbox,no,mono,no,32,no,#ffffff,no,I confirm that my participation has been explained and consent to taking part in the experiment,NA,4,yes,800,nh,droid,81,15,21,C:/Users/russe/Dropbox/Exp_10/New folder/subject-4.csv,droid,Jazzy James,3.1.7,0,21,NA,1,NA,1,1,NA,21,403,NA,1286,NA,695,769,NA,403,2,legacy,Female,1024,2,48000,-16,experiment,4,even,droid,5351,NA,NA,64670,65076,9372,11355,NA,64671,21643,NA,NA,NA,NA,2402,NA,NA,65076,NA,10659,20873,NA,64671,Runtime for Android template,77,37716,82,0.8,no,1280,-0.479052119
93.97590361,93.97590361,22,459.0361446,459.0361446,#000000,no,1,droid,legacy,legacy,0,I confirm that my participation has been explained and consent to taking part in the experiment,relative,1,undefined,undefined,1,0,1,0,98,98,0,0,0,98,0,0,0,0,0,0,NA,0,98,0,0,0,NA,98,892,702,04/09/2018 10:17,A template containing a practice and an experimental phase,96,no,800,1280,15.72330189,yes,Exp_10_working.osexp,C:\Users\russe\Dropbox,no,mono,no,32,no,#ffffff,no,I confirm that my participation has been explained and consent to taking part in the experiment,NA,1,yes,800,hp,droid,82,15,23,C:/Users/russe/Dropbox/Exp_10/New folder/subject-4.csv,droid,Jazzy James,3.1.7,0,23,NA,1,NA,1,1,NA,23,384,NA,1286,NA,695,769,NA,384,2,legacy,Female,1024,2,48000,-16,experiment,4,even,droid,5351,NA,NA,65137,65525,9372,11355,NA,65138,21643,NA,NA,NA,NA,2402,NA,NA,65525,NA,10659,20873,NA,65138,Runtime for Android template,78,38100,83,0.07692,no,1280,-0.674742227
92.85714286,92.85714286,22,459.297619,459.297619,#000000,no,1,droid,legacy,legacy,0,I confirm that my participation has been explained and consent to taking part in the experiment,relative,0,undefined,undefined,0,0,1,0,99,99,0,0,0,99,0,0,0,0,0,0,NA,0,99,0,0,0,NA,99,173,730,04/09/2018 10:17,A template containing a practice and an experimental phase,96,no,800,1280,15.72330189,yes,Exp_10_working.osexp,C:\Users\russe\Dropbox,no,mono,no,32,no,#ffffff,no,I confirm that my participation has been explained and consent to taking part in the experiment,NA,1,yes,800,pm,droid,83,15,20,C:/Users/russe/Dropbox/Exp_10/New folder/subject-4.csv,droid,Jazzy James,3.1.7,0,19,NA,1,NA,1,1,NA,19,481,NA,1286,NA,695,769,NA,481,2,legacy,Female,1024,2,48000,-16,experiment,4,even,droid,5351,NA,NA,65591,66076,9372,11355,NA,65593,21643,NA,NA,NA,NA,2402,NA,NA,66076,NA,10659,20873,NA,65593,Runtime for Android template,78,38581,84,0.2,no,1280,0.324307272
92.94117647,92.94117647,22,460.4705882,460.4705882,#000000,no,1,droid,legacy,legacy,0,I confirm that my participation has been explained and consent to taking part in the experiment,relative,1,undefined,undefined,1,0,1,0,100,100,0,0,0,100,0,0,0,0,0,0,NA,0,100,0,0,0,NA,100,1024,359,04/09/2018 10:17,A template containing a practice and an experimental phase,96,no,800,1280,15.72330189,yes,Exp_10_working.osexp,C:\Users\russe\Dropbox,no,mono,no,32,no,#ffffff,no,I confirm that my participation has been explained and consent to taking part in the experiment,NA,1,yes,800,mh,droid,84,15,11,C:/Users/russe/Dropbox/Exp_10/New folder/subject-4.csv,droid,Jazzy James,3.1.7,0,11,NA,1,NA,1,1,NA,11,559,NA,1286,NA,695,769,NA,559,2,legacy,Female,1024,2,48000,-16,experiment,4,even,droid,5351,NA,NA,66138,66700,9372,11355,NA,66139,21643,NA,NA,NA,NA,2402,NA,NA,66700,NA,10659,20873,NA,66139,Runtime for Android template,79,39140,85,0.11111,no,1280,1.127666663
93.02325581,93.02325581,22,460.9069767,460.9069767,#000000,no,1,droid,legacy,legacy,0,I confirm that my participation has been explained and consent to taking part in the experiment,relative,1,undefined,undefined,1,0,1,0,101,101,0,0,0,101,0,0,0,0,0,0,NA,0,101,0,0,0,NA,101,584,538,04/09/2018 10:17,A template containing a practice and an experimental phase,96,no,800,1280,15.72330189,yes,Exp_10_working.osexp,C:\Users\russe\Dropbox,no,mono,no,32,no,#ffffff,no,I confirm that my participation has been explained and consent to taking part in the experiment,NA,2,yes,800,hj,droid,85,15,15,C:/Users/russe/Dropbox/Exp_10/New folder/subject-4.csv,droid,Jazzy James,3.1.7,0,15,NA,1,NA,1,1,NA,15,498,NA,1286,NA,695,769,NA,498,2,legacy,Female,1024,2,48000,-16,experiment,4,even,droid,5351,NA,NA,66838,67341,9372,11355,NA,66840,21643,NA,NA,NA,NA,2402,NA,NA,67341,NA,10659,20873,NA,66840,Runtime for Android template,80,39638,86,0.15385,no,1280,0.499398421
93.10344828,93.10344828,22,460.862069,460.862069,#000000,no,1,droid,legacy,legacy,0,I confirm that my participation has been explained and consent to taking part in the experiment,relative,1,undefined,undefined,1,0,1,0,102,102,0,0,0,102,0,0,0,0,0,0,NA,0,102,0,0,0,NA,102,986,294,04/09/2018 10:17,A template containing a practice and an experimental phase,96,no,800,1280,15.72330189,yes,Exp_10_working.osexp,C:\Users\russe\Dropbox,no,mono,no,32,no,#ffffff,no,I confirm that my participation has been explained and consent to taking part in the experiment,NA,1,yes,800,jh,droid,86,15,11,C:/Users/russe/Dropbox/Exp_10/New folder/subject-4.csv,droid,Jazzy James,3.1.7,0,11,NA,1,NA,1,1,NA,11,457,NA,1286,NA,695,769,NA,457,2,legacy,Female,1024,2,48000,-16,experiment,4,even,droid,5351,NA,NA,67392,67852,9372,11355,NA,67393,21643,NA,NA,NA,NA,2402,NA,NA,67852,NA,10659,20873,NA,67393,Runtime for Android template,81,40095,87,0.125,no,1280,0.077119767
93.18181818,93.18181818,22,460.3522727,460.3522727,#000000,no,1,droid,legacy,legacy,0,I confirm that my participation has been explained and consent to taking part in the experiment,relative,1,undefined,undefined,1,0,1,0,103,103,0,0,0,103,0,0,0,0,0,0,NA,0,103,0,0,0,NA,103,674,346,04/09/2018 10:17,A template containing a practice and an experimental phase,96,no,800,1280,15.72330189,yes,Exp_10_working.osexp,C:\Users\russe\Dropbox,no,mono,no,32,no,#ffffff,no,I confirm that my participation has been explained and consent to taking part in the experiment,NA,2,yes,800,hg,droid,87,15,10,C:/Users/russe/Dropbox/Exp_10/New folder/subject-4.csv,droid,Jazzy James,3.1.7,0,10,NA,1,NA,1,1,NA,10,416,NA,1286,NA,695,769,NA,416,2,legacy,Female,1024,2,48000,-16,experiment,4,even,droid,5351,NA,NA,67929,68348,9372,11355,NA,67930,21643,NA,NA,NA,NA,2402,NA,NA,68348,NA,10659,20873,NA,67930,Runtime for Android template,82,40511,88,0.15385,no,1280,-0.345158887
93.25842697,93.25842697,22,459.8988764,459.8988764,#000000,no,1,droid,legacy,legacy,0,I confirm that my participation has been explained and consent to taking part in the experiment,relative,1,undefined,undefined,1,0,1,0,104,104,0,0,0,104,0,0,0,0,0,0,NA,0,104,0,0,0,NA,104,551,499,04/09/2018 10:17,A template containing a practice and an experimental phase,96,no,800,1280,15.72330189,yes,Exp_10_working.osexp,C:\Users\russe\Dropbox,no,mono,no,32,no,#ffffff,no,I confirm that my participation has been explained and consent to taking part in the experiment,NA,1,yes,800,gj,droid,88,15,15,C:/Users/russe/Dropbox/Exp_10/New folder/subject-4.csv,droid,Jazzy James,3.1.7,0,15,NA,1,NA,1,1,NA,15,420,NA,1286,NA,695,769,NA,420,2,legacy,Female,1024,2,48000,-16,experiment,4,even,droid,5351,NA,NA,68404,68828,9372,11355,NA,68406,21643,NA,NA,NA,NA,2402,NA,NA,68828,NA,10659,20873,NA,68406,Runtime for Android template,83,40931,89,0.2,no,1280,-0.30396097
