acc,accuracy,age,average_response_time,avg_rt,background,bidi,block,canvas_backend,clock_backend,color_backend,compensation,consent,coordinates,correct,correct_Instructions,correct_new_sketchpad,correct_new_touch_response_4,count_Age,count_Break,count_Consent,count_Experimental_sequence,count_ISI,count_Instructions,count_Prac_block,count_Sex,count_Test_pad,count_block_1,count_block_2,count_block_3,count_block_4,count_block_5,count_experiment,count_feedback,count_incongruent_block,count_logger,count_new_reset_feedback,count_new_sketchpad,count_new_sketchpad_1,count_new_sketchpad_3,count_new_touch_response_4,cursor_x,cursor_y,datetime,description,device_dpi,device_is_tablet,device_resolution_height,device_resolution_width,device_screen_diag,disable_garbage_collection,experiment_file,experiment_path,font_bold,font_family,font_italic,font_size,font_underline,foreground,form_clicks,form_response,form_var,freq,fullscreen,height,key,keyboard_backend,live_row,live_row_Prac_block,loc,logfile,mouse_backend,opensesame_codename,opensesame_version,repeat_cycle,response,response_Break,response_Instructions,response_feedback,response_new_sketchpad,response_new_sketchpad_1,response_new_sketchpad_3,response_new_touch_response_4,response_time,response_time_Break,response_time_Instructions,response_time_feedback,response_time_new_sketchpad,response_time_new_sketchpad_1,response_time_new_sketchpad_3,response_time_new_touch_response_4,round_decimals,sampler_backend,sex,sound_buf_size,sound_channels,sound_freq,sound_sample_size,start,subject_nr,subject_parity,synth_backend,time_Age,time_Break,time_Consent,time_Experimental_sequence,time_ISI,time_Instructions,time_Prac_block,time_Sex,time_Test_pad,time_block_1,time_block_2,time_block_3,time_block_4,time_block_5,time_experiment,time_feedback,time_incongruent_block,time_logger,time_new_reset_feedback,time_new_sketchpad,time_new_sketchpad_1,time_new_sketchpad_3,time_new_touch_response_4,title,total_correct,total_response_time,total_responses,tp,uniform_coordinates,width,z
100,100,22,763,763,#000000,no,NA,droid,legacy,legacy,0,I confirm that my participation has been explained and consent to taking part in the experiment,relative,1,undefined,undefined,1,0,1,0,0,0,0,0,0,0,0,0,0,0,0,0,NA,0,0,0,0,0,NA,0,308,646,04/09/2018 10:46,A template containing a practice and an experimental phase,96,no,800,1280,15.72330189,yes,Exp_10_working.osexp,C:\Users\russe\Dropbox,no,mono,no,32,no,#ffffff,no,I confirm that my participation has been explained and consent to taking part in the experiment,NA,NA,yes,800,NA,droid,0,0,20,C:/Users/russe/Dropbox/Exp_10/New folder/subject-7.csv,droid,Jazzy James,3.1.7,0,20,NA,1,NA,1,NA,NA,20,763,NA,103823,NA,541,NA,NA,763,2,legacy,Female,1024,2,48000,-16,experiment,7,odd,droid,5318,NA,NA,114825,115591,10439,114806,NA,114826,NA,NA,NA,NA,NA,2378,NA,NA,115591,NA,114264,NA,NA,114826,Runtime for Android template,1,763,1,NA,no,1280,4.144991757
100,100,22,572.5,572.5,#000000,no,NA,droid,legacy,legacy,0,I confirm that my participation has been explained and consent to taking part in the experiment,relative,1,undefined,undefined,1,0,1,0,1,1,0,0,0,1,0,0,0,0,0,0,NA,0,1,0,0,0,NA,1,321,305,04/09/2018 10:46,A template containing a practice and an experimental phase,96,no,800,1280,15.72330189,yes,Exp_10_working.osexp,C:\Users\russe\Dropbox,no,mono,no,32,no,#ffffff,no,I confirm that my participation has been explained and consent to taking part in the experiment,NA,NA,yes,800,NA,droid,1,1,8,C:/Users/russe/Dropbox/Exp_10/New folder/subject-7.csv,droid,Jazzy James,3.1.7,0,8,NA,1,NA,1,NA,NA,8,382,NA,103823,NA,541,NA,NA,382,2,legacy,Female,1024,2,48000,-16,experiment,7,odd,droid,5318,NA,NA,115677,116063,10439,114806,NA,115679,NA,NA,NA,NA,NA,2378,NA,NA,116063,NA,114264,NA,NA,115679,Runtime for Android template,2,1145,2,NA,no,1280,-0.485628183
66.66666667,66.66666667,22,522.6666667,522.6666667,#000000,no,NA,droid,legacy,legacy,0,I confirm that my participation has been explained and consent to taking part in the experiment,relative,0,undefined,undefined,0,0,1,0,2,2,0,0,0,2,0,0,0,0,0,0,NA,0,2,0,0,0,NA,2,778,475,04/09/2018 10:46,A template containing a practice and an experimental phase,96,no,800,1280,15.72330189,yes,Exp_10_working.osexp,C:\Users\russe\Dropbox,no,mono,no,32,no,#ffffff,no,I confirm that my participation has been explained and consent to taking part in the experiment,NA,NA,yes,800,NA,droid,2,2,17,C:/Users/russe/Dropbox/Exp_10/New folder/subject-7.csv,droid,Jazzy James,3.1.7,0,16,NA,1,NA,1,NA,NA,16,423,NA,103823,NA,541,NA,NA,423,2,legacy,Female,1024,2,48000,-16,experiment,7,odd,droid,5318,NA,NA,116124,116552,10439,114806,NA,116126,NA,NA,NA,NA,NA,2378,NA,NA,116552,NA,114264,NA,NA,116126,Runtime for Android template,2,1568,3,NA,no,1280,0.012679999
50,50,22,496,496,#000000,no,NA,droid,legacy,legacy,0,I confirm that my participation has been explained and consent to taking part in the experiment,relative,0,undefined,undefined,0,0,1,0,3,3,0,0,0,3,0,0,0,0,0,0,NA,0,3,0,0,0,NA,3,430,494,04/09/2018 10:46,A template containing a practice and an experimental phase,96,no,800,1280,15.72330189,yes,Exp_10_working.osexp,C:\Users\russe\Dropbox,no,mono,no,32,no,#ffffff,no,I confirm that my participation has been explained and consent to taking part in the experiment,NA,NA,yes,800,NA,droid,3,3,14,C:/Users/russe/Dropbox/Exp_10/New folder/subject-7.csv,droid,Jazzy James,3.1.7,0,15,NA,1,NA,1,NA,NA,15,416,NA,103823,NA,541,NA,NA,416,2,legacy,Female,1024,2,48000,-16,experiment,7,odd,droid,5318,NA,NA,116612,117030,10439,114806,NA,116613,NA,NA,NA,NA,NA,2378,NA,NA,117030,NA,114264,NA,NA,116613,Runtime for Android template,2,1984,4,NA,no,1280,-0.072397008
60,60,22,474.6,474.6,#000000,no,NA,droid,legacy,legacy,0,I confirm that my participation has been explained and consent to taking part in the experiment,relative,1,undefined,undefined,1,0,1,0,4,4,0,0,0,4,0,0,0,0,0,0,NA,0,4,0,0,0,NA,4,352,162,04/09/2018 10:46,A template containing a practice and an experimental phase,96,no,800,1280,15.72330189,yes,Exp_10_working.osexp,C:\Users\russe\Dropbox,no,mono,no,32,no,#ffffff,no,I confirm that my participation has been explained and consent to taking part in the experiment,NA,NA,yes,800,NA,droid,4,4,2,C:/Users/russe/Dropbox/Exp_10/New folder/subject-7.csv,droid,Jazzy James,3.1.7,0,2,NA,1,NA,1,NA,NA,2,389,NA,103823,NA,541,NA,NA,389,2,legacy,Female,1024,2,48000,-16,experiment,7,odd,droid,5318,NA,NA,117087,117479,10439,114806,NA,117088,NA,NA,NA,NA,NA,2378,NA,NA,117479,NA,114264,NA,NA,117088,Runtime for Android template,3,2373,5,NA,no,1280,-0.400551177
66.66666667,66.66666667,22,462.3333333,462.3333333,#000000,no,NA,droid,legacy,legacy,0,I confirm that my participation has been explained and consent to taking part in the experiment,relative,1,undefined,undefined,1,0,1,0,5,5,0,0,0,5,0,0,0,0,0,0,NA,0,5,0,0,0,NA,5,826,334,04/09/2018 10:46,A template containing a practice and an experimental phase,96,no,800,1280,15.72330189,yes,Exp_10_working.osexp,C:\Users\russe\Dropbox,no,mono,no,32,no,#ffffff,no,I confirm that my participation has been explained and consent to taking part in the experiment,NA,NA,yes,800,NA,droid,5,5,10,C:/Users/russe/Dropbox/Exp_10/New folder/subject-7.csv,droid,Jazzy James,3.1.7,0,10,NA,1,NA,1,NA,NA,10,401,NA,103823,NA,541,NA,NA,401,2,legacy,Female,1024,2,48000,-16,experiment,7,odd,droid,5318,NA,NA,117554,117959,10439,114806,NA,117556,NA,NA,NA,NA,NA,2378,NA,NA,117959,NA,114264,NA,NA,117556,Runtime for Android template,4,2774,6,NA,no,1280,-0.254704879
71.42857143,71.42857143,22,451.1428571,451.1428571,#000000,no,NA,droid,legacy,legacy,0,I confirm that my participation has been explained and consent to taking part in the experiment,relative,1,undefined,undefined,1,0,1,0,6,6,0,0,0,6,0,0,0,0,0,0,NA,0,6,0,0,0,NA,6,510,275,04/09/2018 10:46,A template containing a practice and an experimental phase,96,no,800,1280,15.72330189,yes,Exp_10_working.osexp,C:\Users\russe\Dropbox,no,mono,no,32,no,#ffffff,no,I confirm that my participation has been explained and consent to taking part in the experiment,NA,NA,yes,800,NA,droid,6,6,9,C:/Users/russe/Dropbox/Exp_10/New folder/subject-7.csv,droid,Jazzy James,3.1.7,0,9,NA,1,NA,1,NA,NA,9,384,NA,103823,NA,541,NA,NA,384,2,legacy,Female,1024,2,48000,-16,experiment,7,odd,droid,5318,NA,NA,118004,118391,10439,114806,NA,118005,NA,NA,NA,NA,NA,2378,NA,NA,118391,NA,114264,NA,NA,118005,Runtime for Android template,5,3158,7,NA,no,1280,-0.461320467
75,75,22,487.625,487.625,#000000,no,NA,droid,legacy,legacy,0,I confirm that my participation has been explained and consent to taking part in the experiment,relative,1,undefined,undefined,1,0,1,0,7,7,0,0,0,7,0,0,0,0,0,0,NA,0,7,0,0,0,NA,7,636,710,04/09/2018 10:46,A template containing a practice and an experimental phase,96,no,800,1280,15.72330189,yes,Exp_10_working.osexp,C:\Users\russe\Dropbox,no,mono,no,32,no,#ffffff,no,I confirm that my participation has been explained and consent to taking part in the experiment,NA,NA,yes,800,NA,droid,7,7,21,C:/Users/russe/Dropbox/Exp_10/New folder/subject-7.csv,droid,Jazzy James,3.1.7,0,21,NA,1,NA,1,NA,NA,21,743,NA,103823,NA,541,NA,NA,743,2,legacy,Female,1024,2,48000,-16,experiment,7,odd,droid,5318,NA,NA,118446,119197,10439,114806,NA,118447,NA,NA,NA,NA,NA,2378,NA,NA,119197,NA,114264,NA,NA,118447,Runtime for Android template,6,3901,8,NA,no,1280,3.901914595
66.66666667,66.66666667,22,480.7777778,480.7777778,#000000,no,NA,droid,legacy,legacy,0,I confirm that my participation has been explained and consent to taking part in the experiment,relative,0,undefined,undefined,0,0,1,0,8,8,0,0,0,8,0,0,0,0,0,0,NA,0,8,0,0,0,NA,8,733,215,04/09/2018 10:46,A template containing a practice and an experimental phase,96,no,800,1280,15.72330189,yes,Exp_10_working.osexp,C:\Users\russe\Dropbox,no,mono,no,32,no,#ffffff,no,I confirm that my participation has been explained and consent to taking part in the experiment,NA,NA,yes,800,NA,droid,8,8,4,C:/Users/russe/Dropbox/Exp_10/New folder/subject-7.csv,droid,Jazzy James,3.1.7,0,10,NA,1,NA,1,NA,NA,10,426,NA,103823,NA,541,NA,NA,426,2,legacy,Female,1024,2,48000,-16,experiment,7,odd,droid,5318,NA,NA,119249,119679,10439,114806,NA,119251,NA,NA,NA,NA,NA,2378,NA,NA,119679,NA,114264,NA,NA,119251,Runtime for Android template,6,4327,9,NA,no,1280,0.049141573
60,60,22,468.9,468.9,#000000,no,NA,droid,legacy,legacy,0,I confirm that my participation has been explained and consent to taking part in the experiment,relative,0,undefined,undefined,0,0,1,0,9,9,0,0,0,9,0,0,0,0,0,0,NA,0,9,0,0,0,NA,9,645,321,04/09/2018 10:46,A template containing a practice and an experimental phase,96,no,800,1280,15.72330189,yes,Exp_10_working.osexp,C:\Users\russe\Dropbox,no,mono,no,32,no,#ffffff,no,I confirm that my participation has been explained and consent to taking part in the experiment,NA,NA,yes,800,NA,droid,9,9,15,C:/Users/russe/Dropbox/Exp_10/New folder/subject-7.csv,droid,Jazzy James,3.1.7,0,10,NA,1,NA,1,NA,NA,10,362,NA,103823,NA,541,NA,NA,362,2,legacy,Female,1024,2,48000,-16,experiment,7,odd,droid,5318,NA,NA,119738,120102,10439,114806,NA,119739,NA,NA,NA,NA,NA,2378,NA,NA,120102,NA,114264,NA,NA,119739,Runtime for Android template,6,4689,10,NA,no,1280,-0.728705346
63.63636364,63.63636364,22,464.6363636,464.6363636,#000000,no,NA,droid,legacy,legacy,0,I confirm that my participation has been explained and consent to taking part in the experiment,relative,1,undefined,undefined,1,0,1,0,10,10,0,0,0,10,0,0,0,0,0,0,NA,0,10,0,0,0,NA,10,918,134,04/09/2018 10:46,A template containing a practice and an experimental phase,96,no,800,1280,15.72330189,yes,Exp_10_working.osexp,C:\Users\russe\Dropbox,no,mono,no,32,no,#ffffff,no,I confirm that my participation has been explained and consent to taking part in the experiment,NA,NA,yes,800,NA,droid,10,10,5,C:/Users/russe/Dropbox/Exp_10/New folder/subject-7.csv,droid,Jazzy James,3.1.7,0,5,NA,1,NA,1,NA,NA,5,422,NA,103823,NA,541,NA,NA,422,2,legacy,Female,1024,2,48000,-16,experiment,7,odd,droid,5318,NA,NA,120174,120599,10439,114806,NA,120175,NA,NA,NA,NA,NA,2378,NA,NA,120599,NA,114264,NA,NA,120175,Runtime for Android template,7,5111,11,NA,no,1280,0.000526141
58.33333333,58.33333333,22,463.0833333,463.0833333,#000000,no,NA,droid,legacy,legacy,0,I confirm that my participation has been explained and consent to taking part in the experiment,relative,0,undefined,undefined,0,0,1,0,11,11,0,0,0,11,0,0,0,0,0,0,NA,0,11,0,0,0,NA,11,665,85,04/09/2018 10:46,A template containing a practice and an experimental phase,96,no,800,1280,15.72330189,yes,Exp_10_working.osexp,C:\Users\russe\Dropbox,no,mono,no,32,no,#ffffff,no,I confirm that my participation has been explained and consent to taking part in the experiment,NA,NA,yes,800,NA,droid,11,11,3,C:/Users/russe/Dropbox/Exp_10/New folder/subject-7.csv,droid,Jazzy James,3.1.7,0,4,NA,1,NA,1,NA,NA,4,446,NA,103823,NA,541,NA,NA,446,2,legacy,Female,1024,2,48000,-16,experiment,7,odd,droid,5318,NA,NA,120662,121111,10439,114806,NA,120663,NA,NA,NA,NA,NA,2378,NA,NA,121111,NA,114264,NA,NA,120663,Runtime for Android template,7,5557,12,NA,no,1280,0.292218736
53.84615385,53.84615385,22,462,462,#000000,no,NA,droid,legacy,legacy,0,I confirm that my participation has been explained and consent to taking part in the experiment,relative,0,undefined,undefined,0,0,1,0,12,12,0,0,0,12,0,0,0,0,0,0,NA,0,12,0,0,0,NA,12,705,552,04/09/2018 10:46,A template containing a practice and an experimental phase,96,no,800,1280,15.72330189,yes,Exp_10_working.osexp,C:\Users\russe\Dropbox,no,mono,no,32,no,#ffffff,no,I confirm that my participation has been explained and consent to taking part in the experiment,NA,NA,yes,800,NA,droid,12,12,22,C:/Users/russe/Dropbox/Exp_10/New folder/subject-7.csv,droid,Jazzy James,3.1.7,0,16,NA,1,NA,1,NA,NA,16,449,NA,103823,NA,541,NA,NA,449,2,legacy,Female,1024,2,48000,-16,experiment,7,odd,droid,5318,NA,NA,121178,121631,10439,114806,NA,121180,NA,NA,NA,NA,NA,2378,NA,NA,121631,NA,114264,NA,NA,121180,Runtime for Android template,7,6006,13,NA,no,1280,0.32868031
57.14285714,57.14285714,22,454.6428571,454.6428571,#000000,no,NA,droid,legacy,legacy,0,I confirm that my participation has been explained and consent to taking part in the experiment,relative,1,undefined,undefined,1,0,1,0,13,13,0,0,0,13,0,0,0,0,0,0,NA,0,13,0,0,0,NA,13,781,560,04/09/2018 10:46,A template containing a practice and an experimental phase,96,no,800,1280,15.72330189,yes,Exp_10_working.osexp,C:\Users\russe\Dropbox,no,mono,no,32,no,#ffffff,no,I confirm that my participation has been explained and consent to taking part in the experiment,NA,NA,yes,800,NA,droid,13,13,16,C:/Users/russe/Dropbox/Exp_10/New folder/subject-7.csv,droid,Jazzy James,3.1.7,0,16,NA,1,NA,1,NA,NA,16,359,NA,103823,NA,541,NA,NA,359,2,legacy,Female,1024,2,48000,-16,experiment,7,odd,droid,5318,NA,NA,121677,122039,10439,114806,NA,121678,NA,NA,NA,NA,NA,2378,NA,NA,122039,NA,114264,NA,NA,121678,Runtime for Android template,8,6365,14,NA,no,1280,-0.76516692
60,60,22,448.2,448.2,#000000,no,NA,droid,legacy,legacy,0,I confirm that my participation has been explained and consent to taking part in the experiment,relative,1,undefined,undefined,1,0,1,0,14,14,0,0,0,14,0,0,0,0,0,0,NA,0,14,0,0,0,NA,14,949,305,04/09/2018 10:46,A template containing a practice and an experimental phase,96,no,800,1280,15.72330189,yes,Exp_10_working.osexp,C:\Users\russe\Dropbox,no,mono,no,32,no,#ffffff,no,I confirm that my participation has been explained and consent to taking part in the experiment,NA,NA,yes,800,NA,droid,14,14,11,C:/Users/russe/Dropbox/Exp_10/New folder/subject-7.csv,droid,Jazzy James,3.1.7,0,11,NA,1,NA,1,NA,NA,11,358,NA,103823,NA,541,NA,NA,358,2,legacy,Female,1024,2,48000,-16,experiment,7,odd,droid,5318,NA,NA,122109,122471,10439,114806,NA,122111,NA,NA,NA,NA,NA,2378,NA,NA,122471,NA,114264,NA,NA,122111,Runtime for Android template,9,6723,15,NA,no,1280,-0.777320778
56.25,56.25,22,446.375,446.375,#000000,no,NA,droid,legacy,legacy,0,I confirm that my participation has been explained and consent to taking part in the experiment,relative,0,undefined,undefined,0,0,1,0,15,15,0,0,0,15,0,0,0,0,0,0,NA,0,15,0,0,0,NA,15,1084,762,04/09/2018 10:46,A template containing a practice and an experimental phase,96,no,800,1280,15.72330189,yes,Exp_10_working.osexp,C:\Users\russe\Dropbox,no,mono,no,32,no,#ffffff,no,I confirm that my participation has been explained and consent to taking part in the experiment,NA,NA,yes,800,NA,droid,15,15,23,C:/Users/russe/Dropbox/Exp_10/New folder/subject-7.csv,droid,Jazzy James,3.1.7,0,24,NA,1,NA,1,NA,NA,24,419,NA,103823,NA,541,NA,NA,419,2,legacy,Female,1024,2,48000,-16,experiment,7,odd,droid,5318,NA,NA,122529,122951,10439,114806,NA,122530,NA,NA,NA,NA,NA,2378,NA,NA,122951,NA,114264,NA,NA,122530,Runtime for Android template,9,7142,16,NA,no,1280,-0.035935433
100,100,22,586,586,#000000,no,1,droid,legacy,legacy,0,I confirm that my participation has been explained and consent to taking part in the experiment,relative,1,undefined,undefined,1,0,1,0,16,16,0,0,0,16,0,0,0,0,0,0,NA,0,16,0,0,0,NA,16,239,298,04/09/2018 10:46,A template containing a practice and an experimental phase,96,no,800,1280,15.72330189,yes,Exp_10_working.osexp,C:\Users\russe\Dropbox,no,mono,no,32,no,#ffffff,no,I confirm that my participation has been explained and consent to taking part in the experiment,NA,2,yes,800,oe,droid,0,15,8,C:/Users/russe/Dropbox/Exp_10/New folder/subject-7.csv,droid,Jazzy James,3.1.7,0,8,NA,1,NA,1,1,NA,8,586,NA,103823,NA,541,826,NA,586,2,legacy,Female,1024,2,48000,-16,experiment,7,odd,droid,5318,NA,NA,123896,124487,10439,114806,NA,123899,123870,NA,NA,NA,NA,2378,NA,NA,124487,NA,114264,123043,NA,123899,Runtime for Android template,1,586,1,0.125,no,1280,1.993758871
100,100,22,445.5,445.5,#000000,no,1,droid,legacy,legacy,0,I confirm that my participation has been explained and consent to taking part in the experiment,relative,1,undefined,undefined,1,0,1,0,17,17,0,0,0,17,0,0,0,0,0,0,NA,0,17,0,0,0,NA,17,378,321,04/09/2018 10:46,A template containing a practice and an experimental phase,96,no,800,1280,15.72330189,yes,Exp_10_working.osexp,C:\Users\russe\Dropbox,no,mono,no,32,no,#ffffff,no,I confirm that my participation has been explained and consent to taking part in the experiment,NA,2,yes,800,ee,droid,1,15,8,C:/Users/russe/Dropbox/Exp_10/New folder/subject-7.csv,droid,Jazzy James,3.1.7,0,8,NA,1,NA,1,1,NA,8,305,NA,103823,NA,541,826,NA,305,2,legacy,Female,1024,2,48000,-16,experiment,7,odd,droid,5318,NA,NA,124546,124855,10439,114806,NA,124548,123870,NA,NA,NA,NA,2378,NA,NA,124855,NA,114264,123043,NA,124548,Runtime for Android template,2,891,2,0.16667,no,1280,-1.421475258
100,100,22,429,429,#000000,no,1,droid,legacy,legacy,0,I confirm that my participation has been explained and consent to taking part in the experiment,relative,1,undefined,undefined,1,0,1,0,18,18,0,0,0,18,0,0,0,0,0,0,NA,0,18,0,0,0,NA,18,648,461,04/09/2018 10:46,A template containing a practice and an experimental phase,96,no,800,1280,15.72330189,yes,Exp_10_working.osexp,C:\Users\russe\Dropbox,no,mono,no,32,no,#ffffff,no,I confirm that my participation has been explained and consent to taking part in the experiment,NA,1,yes,800,ek,droid,2,15,16,C:/Users/russe/Dropbox/Exp_10/New folder/subject-7.csv,droid,Jazzy James,3.1.7,0,16,NA,1,NA,1,1,NA,16,396,NA,103823,NA,541,826,NA,396,2,legacy,Female,1024,2,48000,-16,experiment,7,odd,droid,5318,NA,NA,124896,125295,10439,114806,NA,124897,123870,NA,NA,NA,NA,2378,NA,NA,125295,NA,114264,123043,NA,124897,Runtime for Android template,3,1287,3,0.08333,no,1280,-0.31547417
100,100,22,423.75,423.75,#000000,no,1,droid,legacy,legacy,0,I confirm that my participation has been explained and consent to taking part in the experiment,relative,1,undefined,undefined,1,0,1,0,19,19,0,0,0,19,0,0,0,0,0,0,NA,0,19,0,0,0,NA,19,701,111,04/09/2018 10:46,A template containing a practice and an experimental phase,96,no,800,1280,15.72330189,yes,Exp_10_working.osexp,C:\Users\russe\Dropbox,no,mono,no,32,no,#ffffff,no,I confirm that my participation has been explained and consent to taking part in the experiment,NA,1,yes,800,kc,droid,3,15,4,C:/Users/russe/Dropbox/Exp_10/New folder/subject-7.csv,droid,Jazzy James,3.1.7,0,4,NA,1,NA,1,1,NA,4,408,NA,103823,NA,541,826,NA,408,2,legacy,Female,1024,2,48000,-16,experiment,7,odd,droid,5318,NA,NA,125356,125767,10439,114806,NA,125357,123870,NA,NA,NA,NA,2378,NA,NA,125767,NA,114264,123043,NA,125357,Runtime for Android template,4,1695,4,0.125,no,1280,-0.169627873
100,100,22,420.2,420.2,#000000,no,1,droid,legacy,legacy,0,I confirm that my participation has been explained and consent to taking part in the experiment,relative,1,undefined,undefined,1,0,1,0,20,20,0,0,0,20,0,0,0,0,0,0,NA,0,20,0,0,0,NA,20,978,484,04/09/2018 10:46,A template containing a practice and an experimental phase,96,no,800,1280,15.72330189,yes,Exp_10_working.osexp,C:\Users\russe\Dropbox,no,mono,no,32,no,#ffffff,no,I confirm that my participation has been explained and consent to taking part in the experiment,NA,1,yes,800,cl,droid,4,15,17,C:/Users/russe/Dropbox/Exp_10/New folder/subject-7.csv,droid,Jazzy James,3.1.7,0,17,NA,1,NA,1,1,NA,17,406,NA,103823,NA,541,826,NA,406,2,legacy,Female,1024,2,48000,-16,experiment,7,odd,droid,5318,NA,NA,125821,126231,10439,114806,NA,125823,123870,NA,NA,NA,NA,2378,NA,NA,126231,NA,114264,123043,NA,125823,Runtime for Android template,5,2101,5,0.1,no,1280,-0.193935589
100,100,22,429,429,#000000,no,1,droid,legacy,legacy,0,I confirm that my participation has been explained and consent to taking part in the experiment,relative,1,undefined,undefined,1,0,1,0,21,21,0,0,0,21,0,0,0,0,0,0,NA,0,21,0,0,0,NA,21,348,726,04/09/2018 10:46,A template containing a practice and an experimental phase,96,no,800,1280,15.72330189,yes,Exp_10_working.osexp,C:\Users\russe\Dropbox,no,mono,no,32,no,#ffffff,no,I confirm that my participation has been explained and consent to taking part in the experiment,NA,1,yes,800,lm,droid,5,15,20,C:/Users/russe/Dropbox/Exp_10/New folder/subject-7.csv,droid,Jazzy James,3.1.7,0,20,NA,1,NA,1,1,NA,20,473,NA,103823,NA,541,826,NA,473,2,legacy,Female,1024,2,48000,-16,experiment,7,odd,droid,5318,NA,NA,126347,126823,10439,114806,NA,126348,123870,NA,NA,NA,NA,2378,NA,NA,126823,NA,114264,123043,NA,126348,Runtime for Android template,6,2574,6,0.25,no,1280,0.620372905
100,100,22,421,421,#000000,no,1,droid,legacy,legacy,0,I confirm that my participation has been explained and consent to taking part in the experiment,relative,1,undefined,undefined,1,0,1,0,22,22,0,0,0,22,0,0,0,0,0,0,NA,0,22,0,0,0,NA,22,344,301,04/09/2018 10:46,A template containing a practice and an experimental phase,96,no,800,1280,15.72330189,yes,Exp_10_working.osexp,C:\Users\russe\Dropbox,no,mono,no,32,no,#ffffff,no,I confirm that my participation has been explained and consent to taking part in the experiment,NA,2,yes,800,me,droid,6,15,8,C:/Users/russe/Dropbox/Exp_10/New folder/subject-7.csv,droid,Jazzy James,3.1.7,0,8,NA,1,NA,1,1,NA,8,373,NA,103823,NA,541,826,NA,373,2,legacy,Female,1024,2,48000,-16,experiment,7,odd,droid,5318,NA,NA,126878,127255,10439,114806,NA,126880,123870,NA,NA,NA,NA,2378,NA,NA,127255,NA,114264,123043,NA,126880,Runtime for Android template,7,2947,7,0.22222,no,1280,-0.595012906
100,100,22,418,418,#000000,no,1,droid,legacy,legacy,0,I confirm that my participation has been explained and consent to taking part in the experiment,relative,1,undefined,undefined,1,0,1,0,23,23,0,0,0,23,0,0,0,0,0,0,NA,0,23,0,0,0,NA,23,345,106,04/09/2018 10:46,A template containing a practice and an experimental phase,96,no,800,1280,15.72330189,yes,Exp_10_working.osexp,C:\Users\russe\Dropbox,no,mono,no,32,no,#ffffff,no,I confirm that my participation has been explained and consent to taking part in the experiment,NA,1,yes,800,ea,droid,7,15,2,C:/Users/russe/Dropbox/Exp_10/New folder/subject-7.csv,droid,Jazzy James,3.1.7,0,2,NA,1,NA,1,1,NA,2,397,NA,103823,NA,541,826,NA,397,2,legacy,Female,1024,2,48000,-16,experiment,7,odd,droid,5318,NA,NA,127310,127711,10439,114806,NA,127312,123870,NA,NA,NA,NA,2378,NA,NA,127711,NA,114264,123043,NA,127312,Runtime for Android template,8,3344,8,0.08333,no,1280,-0.303320312
100,100,22,428.3333333,428.3333333,#000000,no,1,droid,legacy,legacy,0,I confirm that my participation has been explained and consent to taking part in the experiment,relative,1,undefined,undefined,1,0,1,0,24,24,0,0,0,24,0,0,0,0,0,0,NA,0,24,0,0,0,NA,24,753,667,04/09/2018 10:46,A template containing a practice and an experimental phase,96,no,800,1280,15.72330189,yes,Exp_10_working.osexp,C:\Users\russe\Dropbox,no,mono,no,32,no,#ffffff,no,I confirm that my participation has been explained and consent to taking part in the experiment,NA,2,yes,800,ao,droid,8,15,22,C:/Users/russe/Dropbox/Exp_10/New folder/subject-7.csv,droid,Jazzy James,3.1.7,0,22,NA,1,NA,1,1,NA,22,511,NA,103823,NA,541,826,NA,511,2,legacy,Female,1024,2,48000,-16,experiment,7,odd,droid,5318,NA,NA,127956,128471,10439,114806,NA,127958,123870,NA,NA,NA,NA,2378,NA,NA,128471,NA,114264,123043,NA,127958,Runtime for Android template,9,3855,9,0.33333,no,1280,1.082219513
100,100,22,421.9,421.9,#000000,no,1,droid,legacy,legacy,0,I confirm that my participation has been explained and consent to taking part in the experiment,relative,1,undefined,undefined,1,0,1,0,25,25,0,0,0,25,0,0,0,0,0,0,NA,0,25,0,0,0,NA,25,609,544,04/09/2018 10:46,A template containing a practice and an experimental phase,96,no,800,1280,15.72330189,yes,Exp_10_working.osexp,C:\Users\russe\Dropbox,no,mono,no,32,no,#ffffff,no,I confirm that my participation has been explained and consent to taking part in the experiment,NA,1,yes,800,oj,droid,9,15,15,C:/Users/russe/Dropbox/Exp_10/New folder/subject-7.csv,droid,Jazzy James,3.1.7,0,15,NA,1,NA,1,1,NA,15,364,NA,103823,NA,541,826,NA,364,2,legacy,Female,1024,2,48000,-16,experiment,7,odd,droid,5318,NA,NA,128512,128879,10439,114806,NA,128513,123870,NA,NA,NA,NA,2378,NA,NA,128879,NA,114264,123043,NA,128513,Runtime for Android template,10,4219,10,0.0625,no,1280,-0.704397629
100,100,22,418.4545455,418.4545455,#000000,no,1,droid,legacy,legacy,0,I confirm that my participation has been explained and consent to taking part in the experiment,relative,1,undefined,undefined,1,0,1,0,26,26,0,0,0,26,0,0,0,0,0,0,NA,0,26,0,0,0,NA,26,590,675,04/09/2018 10:46,A template containing a practice and an experimental phase,96,no,800,1280,15.72330189,yes,Exp_10_working.osexp,C:\Users\russe\Dropbox,no,mono,no,32,no,#ffffff,no,I confirm that my participation has been explained and consent to taking part in the experiment,NA,1,yes,800,jn,droid,10,15,21,C:/Users/russe/Dropbox/Exp_10/New folder/subject-7.csv,droid,Jazzy James,3.1.7,0,21,NA,1,NA,1,1,NA,21,384,NA,103823,NA,541,826,NA,384,2,legacy,Female,1024,2,48000,-16,experiment,7,odd,droid,5318,NA,NA,128940,129327,10439,114806,NA,128941,123870,NA,NA,NA,NA,2378,NA,NA,129327,NA,114264,123043,NA,128941,Runtime for Android template,11,4603,11,0.125,no,1280,-0.461320467
100,100,22,414.1666667,414.1666667,#000000,no,1,droid,legacy,legacy,0,I confirm that my participation has been explained and consent to taking part in the experiment,relative,1,undefined,undefined,1,0,1,0,27,27,0,0,0,27,0,0,0,0,0,0,NA,0,27,0,0,0,NA,27,1026,271,04/09/2018 10:46,A template containing a practice and an experimental phase,96,no,800,1280,15.72330189,yes,Exp_10_working.osexp,C:\Users\russe\Dropbox,no,mono,no,32,no,#ffffff,no,I confirm that my participation has been explained and consent to taking part in the experiment,NA,4,yes,800,nh,droid,11,15,11,C:/Users/russe/Dropbox/Exp_10/New folder/subject-7.csv,droid,Jazzy James,3.1.7,0,11,NA,1,NA,1,1,NA,11,367,NA,103823,NA,541,826,NA,367,2,legacy,Female,1024,2,48000,-16,experiment,7,odd,droid,5318,NA,NA,129381,129752,10439,114806,NA,129382,123870,NA,NA,NA,NA,2378,NA,NA,129752,NA,114264,123043,NA,129382,Runtime for Android template,12,4970,12,0.8,no,1280,-0.667936055
92.30769231,92.30769231,22,412.9230769,412.9230769,#000000,no,1,droid,legacy,legacy,0,I confirm that my participation has been explained and consent to taking part in the experiment,relative,0,undefined,undefined,0,0,1,0,28,28,0,0,0,28,0,0,0,0,0,0,NA,0,28,0,0,0,NA,28,432,513,04/09/2018 10:46,A template containing a practice and an experimental phase,96,no,800,1280,15.72330189,yes,Exp_10_working.osexp,C:\Users\russe\Dropbox,no,mono,no,32,no,#ffffff,no,I confirm that my participation has been explained and consent to taking part in the experiment,NA,1,yes,800,hi,droid,12,15,14,C:/Users/russe/Dropbox/Exp_10/New folder/subject-7.csv,droid,Jazzy James,3.1.7,0,15,NA,1,NA,1,1,NA,15,398,NA,103823,NA,541,826,NA,398,2,legacy,Female,1024,2,48000,-16,experiment,7,odd,droid,5318,NA,NA,129814,130215,10439,114806,NA,129815,123870,NA,NA,NA,NA,2378,NA,NA,130215,NA,114264,123043,NA,129815,Runtime for Android template,12,5368,13,0.07692,no,1280,-0.291166454
92.85714286,92.85714286,22,413.3571429,413.3571429,#000000,no,1,droid,legacy,legacy,0,I confirm that my participation has been explained and consent to taking part in the experiment,relative,1,undefined,undefined,1,0,1,0,29,29,0,0,0,29,0,0,0,0,0,0,NA,0,29,0,0,0,NA,29,739,148,04/09/2018 10:46,A template containing a practice and an experimental phase,96,no,800,1280,15.72330189,yes,Exp_10_working.osexp,C:\Users\russe\Dropbox,no,mono,no,32,no,#ffffff,no,I confirm that my participation has been explained and consent to taking part in the experiment,NA,1,yes,800,ic,droid,13,15,4,C:/Users/russe/Dropbox/Exp_10/New folder/subject-7.csv,droid,Jazzy James,3.1.7,0,4,NA,1,NA,1,1,NA,4,419,NA,103823,NA,541,826,NA,419,2,legacy,Female,1024,2,48000,-16,experiment,7,odd,droid,5318,NA,NA,130272,130695,10439,114806,NA,130274,123870,NA,NA,NA,NA,2378,NA,NA,130695,NA,114264,123043,NA,130274,Runtime for Android template,13,5787,14,1,no,1280,-0.035935433
93.33333333,93.33333333,22,406.7333333,406.7333333,#000000,no,1,droid,legacy,legacy,0,I confirm that my participation has been explained and consent to taking part in the experiment,relative,1,undefined,undefined,1,0,1,0,30,30,0,0,0,30,0,0,0,0,0,0,NA,0,30,0,0,0,NA,30,779,381,04/09/2018 10:46,A template containing a practice and an experimental phase,96,no,800,1280,15.72330189,yes,Exp_10_working.osexp,C:\Users\russe\Dropbox,no,mono,no,32,no,#ffffff,no,I confirm that my participation has been explained and consent to taking part in the experiment,NA,1,yes,800,cg,droid,14,15,10,C:/Users/russe/Dropbox/Exp_10/New folder/subject-7.csv,droid,Jazzy James,3.1.7,0,10,NA,1,NA,1,1,NA,10,314,NA,103823,NA,541,826,NA,314,2,legacy,Female,1024,2,48000,-16,experiment,7,odd,droid,5318,NA,NA,130818,131135,10439,114806,NA,130819,123870,NA,NA,NA,NA,2378,NA,NA,131135,NA,114264,123043,NA,130819,Runtime for Android template,14,6101,15,0.1,no,1280,-1.312090535
93.75,93.75,22,404.75,404.75,#000000,no,1,droid,legacy,legacy,0,I confirm that my participation has been explained and consent to taking part in the experiment,relative,1,undefined,undefined,1,0,1,0,31,31,0,0,0,31,0,0,0,0,0,0,NA,0,31,0,0,0,NA,31,948,559,04/09/2018 10:46,A template containing a practice and an experimental phase,96,no,800,1280,15.72330189,yes,Exp_10_working.osexp,C:\Users\russe\Dropbox,no,mono,no,32,no,#ffffff,no,I confirm that my participation has been explained and consent to taking part in the experiment,NA,1,yes,800,gl,droid,15,15,17,C:/Users/russe/Dropbox/Exp_10/New folder/subject-7.csv,droid,Jazzy James,3.1.7,0,17,NA,1,NA,1,1,NA,17,375,NA,103823,NA,541,826,NA,375,2,legacy,Female,1024,2,48000,-16,experiment,7,odd,droid,5318,NA,NA,131196,131575,10439,114806,NA,131198,123870,NA,NA,NA,NA,2378,NA,NA,131575,NA,114264,123043,NA,131198,Runtime for Android template,15,6476,16,0.2,no,1280,-0.57070519
94.11764706,94.11764706,22,405.5882353,405.5882353,#000000,no,1,droid,legacy,legacy,0,I confirm that my participation has been explained and consent to taking part in the experiment,relative,1,undefined,undefined,1,0,1,0,32,32,0,0,0,32,0,0,0,0,0,0,NA,0,32,0,0,0,NA,32,809,23,04/09/2018 10:46,A template containing a practice and an experimental phase,96,no,800,1280,15.72330189,yes,Exp_10_working.osexp,C:\Users\russe\Dropbox,no,mono,no,32,no,#ffffff,no,I confirm that my participation has been explained and consent to taking part in the experiment,NA,1,yes,800,lc,droid,16,15,4,C:/Users/russe/Dropbox/Exp_10/New folder/subject-7.csv,droid,Jazzy James,3.1.7,0,4,NA,1,NA,1,1,NA,4,419,NA,103823,NA,541,826,NA,419,2,legacy,Female,1024,2,48000,-16,experiment,7,odd,droid,5318,NA,NA,131648,132071,10439,114806,NA,131649,123870,NA,NA,NA,NA,2378,NA,NA,132071,NA,114264,123043,NA,131650,Runtime for Android template,16,6895,17,0.25,no,1280,-0.035935433
94.44444444,94.44444444,22,405.2777778,405.2777778,#000000,no,1,droid,legacy,legacy,0,I confirm that my participation has been explained and consent to taking part in the experiment,relative,1,undefined,undefined,1,0,1,0,33,33,0,0,0,33,0,0,0,0,0,0,NA,0,33,0,0,0,NA,33,773,681,04/09/2018 10:46,A template containing a practice and an experimental phase,96,no,800,1280,15.72330189,yes,Exp_10_working.osexp,C:\Users\russe\Dropbox,no,mono,no,32,no,#ffffff,no,I confirm that my participation has been explained and consent to taking part in the experiment,NA,3,yes,800,co,droid,17,15,22,C:/Users/russe/Dropbox/Exp_10/New folder/subject-7.csv,droid,Jazzy James,3.1.7,0,22,NA,1,NA,1,1,NA,22,400,NA,103823,NA,541,826,NA,400,2,legacy,Female,1024,2,48000,-16,experiment,7,odd,droid,5318,NA,NA,132139,132543,10439,114806,NA,132141,123870,NA,NA,NA,NA,2378,NA,NA,132543,NA,114264,123043,NA,132141,Runtime for Android template,17,7295,18,0.3,no,1280,-0.266858737
94.73684211,94.73684211,22,404.8947368,404.8947368,#000000,no,1,droid,legacy,legacy,0,I confirm that my participation has been explained and consent to taking part in the experiment,relative,1,undefined,undefined,1,0,1,0,34,34,0,0,0,34,0,0,0,0,0,0,NA,0,34,0,0,0,NA,34,997,343,04/09/2018 10:46,A template containing a practice and an experimental phase,96,no,800,1280,15.72330189,yes,Exp_10_working.osexp,C:\Users\russe\Dropbox,no,mono,no,32,no,#ffffff,no,I confirm that my participation has been explained and consent to taking part in the experiment,NA,1,yes,800,oh,droid,18,15,11,C:/Users/russe/Dropbox/Exp_10/New folder/subject-7.csv,droid,Jazzy James,3.1.7,0,11,NA,1,NA,1,1,NA,11,398,NA,103823,NA,541,826,NA,398,2,legacy,Female,1024,2,48000,-16,experiment,7,odd,droid,5318,NA,NA,132598,132999,10439,114806,NA,132599,123870,NA,NA,NA,NA,2378,NA,NA,132999,NA,114264,123043,NA,132599,Runtime for Android template,18,7693,19,0.0625,no,1280,-0.291166454
95,95,22,404,404,#000000,no,1,droid,legacy,legacy,0,I confirm that my participation has been explained and consent to taking part in the experiment,relative,1,undefined,undefined,1,0,1,0,35,35,0,0,0,35,0,0,0,0,0,0,NA,0,35,0,0,0,NA,35,608,533,04/09/2018 10:46,A template containing a practice and an experimental phase,96,no,800,1280,15.72330189,yes,Exp_10_working.osexp,C:\Users\russe\Dropbox,no,mono,no,32,no,#ffffff,no,I confirm that my participation has been explained and consent to taking part in the experiment,NA,2,yes,800,hj,droid,19,15,15,C:/Users/russe/Dropbox/Exp_10/New folder/subject-7.csv,droid,Jazzy James,3.1.7,0,15,NA,1,NA,1,1,NA,15,387,NA,103823,NA,541,826,NA,387,2,legacy,Female,1024,2,48000,-16,experiment,7,odd,droid,5318,NA,NA,133049,133439,10439,114806,NA,133050,123870,NA,NA,NA,NA,2378,NA,NA,133439,NA,114264,123043,NA,133050,Runtime for Android template,19,8080,20,0.15385,no,1280,-0.424858893
95.23809524,95.23809524,22,401.2380952,401.2380952,#000000,no,1,droid,legacy,legacy,0,I confirm that my participation has been explained and consent to taking part in the experiment,relative,1,undefined,undefined,1,0,1,0,36,36,0,0,0,36,0,0,0,0,0,0,NA,0,36,0,0,0,NA,36,780,639,04/09/2018 10:46,A template containing a practice and an experimental phase,96,no,800,1280,15.72330189,yes,Exp_10_working.osexp,C:\Users\russe\Dropbox,no,mono,no,32,no,#ffffff,no,I confirm that my participation has been explained and consent to taking part in the experiment,NA,2,yes,800,jo,droid,20,15,22,C:/Users/russe/Dropbox/Exp_10/New folder/subject-7.csv,droid,Jazzy James,3.1.7,0,22,NA,1,NA,1,1,NA,22,346,NA,103823,NA,541,826,NA,346,2,legacy,Female,1024,2,48000,-16,experiment,7,odd,droid,5318,NA,NA,133490,133839,10439,114806,NA,133491,123870,NA,NA,NA,NA,2378,NA,NA,133839,NA,114264,123043,NA,133491,Runtime for Android template,20,8426,21,0.25,no,1280,-0.923167075
95.45454545,95.45454545,22,400.5454545,400.5454545,#000000,no,1,droid,legacy,legacy,0,I confirm that my participation has been explained and consent to taking part in the experiment,relative,1,undefined,undefined,1,0,1,0,37,37,0,0,0,37,0,0,0,0,0,0,NA,0,37,0,0,0,NA,37,239,272,04/09/2018 10:46,A template containing a practice and an experimental phase,96,no,800,1280,15.72330189,yes,Exp_10_working.osexp,C:\Users\russe\Dropbox,no,mono,no,32,no,#ffffff,no,I confirm that my participation has been explained and consent to taking part in the experiment,NA,2,yes,800,oe,droid,21,15,8,C:/Users/russe/Dropbox/Exp_10/New folder/subject-7.csv,droid,Jazzy James,3.1.7,0,8,NA,1,NA,1,1,NA,8,386,NA,103823,NA,541,826,NA,386,2,legacy,Female,1024,2,48000,-16,experiment,7,odd,droid,5318,NA,NA,133889,134279,10439,114806,NA,133891,123870,NA,NA,NA,NA,2378,NA,NA,134279,NA,114264,123043,NA,133891,Runtime for Android template,21,8812,22,0.125,no,1280,-0.437012751
95.65217391,95.65217391,22,397.3478261,397.3478261,#000000,no,1,droid,legacy,legacy,0,I confirm that my participation has been explained and consent to taking part in the experiment,relative,1,undefined,undefined,1,0,1,0,38,38,0,0,0,38,0,0,0,0,0,0,NA,0,38,0,0,0,NA,38,563,353,04/09/2018 10:46,A template containing a practice and an experimental phase,96,no,800,1280,15.72330189,yes,Exp_10_working.osexp,C:\Users\russe\Dropbox,no,mono,no,32,no,#ffffff,no,I confirm that my participation has been explained and consent to taking part in the experiment,NA,1,yes,800,ef,droid,22,15,9,C:/Users/russe/Dropbox/Exp_10/New folder/subject-7.csv,droid,Jazzy James,3.1.7,0,9,NA,1,NA,1,1,NA,9,327,NA,103823,NA,541,826,NA,327,2,legacy,Female,1024,2,48000,-16,experiment,7,odd,droid,5318,NA,NA,134365,134695,10439,114806,NA,134366,123870,NA,NA,NA,NA,2378,NA,NA,134695,NA,114264,123043,NA,134366,Runtime for Android template,22,9139,23,0.08333,no,1280,-1.154090379
95.83333333,95.83333333,22,399.75,399.75,#000000,no,1,droid,legacy,legacy,0,I confirm that my participation has been explained and consent to taking part in the experiment,relative,1,undefined,undefined,1,0,1,0,39,39,0,0,0,39,0,0,0,0,0,0,NA,0,39,0,0,0,NA,39,727,649,04/09/2018 10:46,A template containing a practice and an experimental phase,96,no,800,1280,15.72330189,yes,Exp_10_working.osexp,C:\Users\russe\Dropbox,no,mono,no,32,no,#ffffff,no,I confirm that my participation has been explained and consent to taking part in the experiment,NA,1,yes,800,fo,droid,23,15,22,C:/Users/russe/Dropbox/Exp_10/New folder/subject-7.csv,droid,Jazzy James,3.1.7,0,22,NA,1,NA,1,1,NA,22,455,NA,103823,NA,541,826,NA,455,2,legacy,Female,1024,2,48000,-16,experiment,7,odd,droid,5318,NA,NA,134748,135207,10439,114806,NA,134750,123870,NA,NA,NA,NA,2378,NA,NA,135207,NA,114264,123043,NA,134750,Runtime for Android template,23,9594,24,0.33333,no,1280,0.401603459
96,96,22,400.16,400.16,#000000,no,1,droid,legacy,legacy,0,I confirm that my participation has been explained and consent to taking part in the experiment,relative,1,undefined,undefined,1,0,1,0,40,40,0,0,0,40,0,0,0,0,0,0,NA,0,40,0,0,0,NA,40,307,621,04/09/2018 10:46,A template containing a practice and an experimental phase,96,no,800,1280,15.72330189,yes,Exp_10_working.osexp,C:\Users\russe\Dropbox,no,mono,no,32,no,#ffffff,no,I confirm that my participation has been explained and consent to taking part in the experiment,NA,1,yes,800,om,droid,24,15,20,C:/Users/russe/Dropbox/Exp_10/New folder/subject-7.csv,droid,Jazzy James,3.1.7,0,20,NA,1,NA,1,1,NA,20,410,NA,103823,NA,541,826,NA,410,2,legacy,Female,1024,2,48000,-16,experiment,7,odd,droid,5318,NA,NA,135257,135671,10439,114806,NA,135259,123870,NA,NA,NA,NA,2378,NA,NA,135671,NA,114264,123043,NA,135259,Runtime for Android template,24,10004,25,0.0625,no,1280,-0.145320156
96.15384615,96.15384615,22,400.1153846,400.1153846,#000000,no,1,droid,legacy,legacy,0,I confirm that my participation has been explained and consent to taking part in the experiment,relative,1,undefined,undefined,1,0,1,0,41,41,0,0,0,41,0,0,0,0,0,0,NA,0,41,0,0,0,NA,41,492,172,04/09/2018 10:46,A template containing a practice and an experimental phase,96,no,800,1280,15.72330189,yes,Exp_10_working.osexp,C:\Users\russe\Dropbox,no,mono,no,32,no,#ffffff,no,I confirm that my participation has been explained and consent to taking part in the experiment,NA,1,yes,800,mb,droid,25,15,3,C:/Users/russe/Dropbox/Exp_10/New folder/subject-7.csv,droid,Jazzy James,3.1.7,0,3,NA,1,NA,1,1,NA,3,399,NA,103823,NA,541,826,NA,399,2,legacy,Female,1024,2,48000,-16,experiment,7,odd,droid,5318,NA,NA,135732,136135,10439,114806,NA,135734,123870,NA,NA,NA,NA,2378,NA,NA,136135,NA,114264,123043,NA,135734,Runtime for Android template,25,10403,26,0.11111,no,1280,-0.279012596
92.59259259,92.59259259,22,399.1481481,399.1481481,#000000,no,1,droid,legacy,legacy,0,I confirm that my participation has been explained and consent to taking part in the experiment,relative,0,undefined,undefined,0,0,1,0,42,42,0,0,0,42,0,0,0,0,0,0,NA,0,42,0,0,0,NA,42,1078,285,04/09/2018 10:46,A template containing a practice and an experimental phase,96,no,800,1280,15.72330189,yes,Exp_10_working.osexp,C:\Users\russe\Dropbox,no,mono,no,32,no,#ffffff,no,I confirm that my participation has been explained and consent to taking part in the experiment,NA,1,yes,800,bh,droid,26,15,11,C:/Users/russe/Dropbox/Exp_10/New folder/subject-7.csv,droid,Jazzy James,3.1.7,0,12,NA,1,NA,1,1,NA,12,374,NA,103823,NA,541,826,NA,374,2,legacy,Female,1024,2,48000,-16,experiment,7,odd,droid,5318,NA,NA,136190,136567,10439,114806,NA,136191,123870,NA,NA,NA,NA,2378,NA,NA,136567,NA,114264,123043,NA,136191,Runtime for Android template,25,10777,27,0.125,no,1280,-0.582859048
89.28571429,89.28571429,22,400.7857143,400.7857143,#000000,no,1,droid,legacy,legacy,0,I confirm that my participation has been explained and consent to taking part in the experiment,relative,0,undefined,undefined,0,0,1,0,43,43,0,0,0,43,0,0,0,0,0,0,NA,0,43,0,0,0,NA,43,1086,252,04/09/2018 10:46,A template containing a practice and an experimental phase,96,no,800,1280,15.72330189,yes,Exp_10_working.osexp,C:\Users\russe\Dropbox,no,mono,no,32,no,#ffffff,no,I confirm that my participation has been explained and consent to taking part in the experiment,NA,1,yes,800,hh,droid,27,15,11,C:/Users/russe/Dropbox/Exp_10/New folder/subject-7.csv,droid,Jazzy James,3.1.7,0,12,NA,1,NA,1,1,NA,12,445,NA,103823,NA,541,826,NA,445,2,legacy,Female,1024,2,48000,-16,experiment,7,odd,droid,5318,NA,NA,136614,137063,10439,114806,NA,136616,123870,NA,NA,NA,NA,2378,NA,NA,137063,NA,114264,123043,NA,136616,Runtime for Android template,25,11222,28,0.07692,no,1280,0.280064878
89.65517241,89.65517241,22,401.3103448,401.3103448,#000000,no,1,droid,legacy,legacy,0,I confirm that my participation has been explained and consent to taking part in the experiment,relative,1,undefined,undefined,1,0,1,0,44,44,0,0,0,44,0,0,0,0,0,0,NA,0,44,0,0,0,NA,44,751,129,04/09/2018 10:46,A template containing a practice and an experimental phase,96,no,800,1280,15.72330189,yes,Exp_10_working.osexp,C:\Users\russe\Dropbox,no,mono,no,32,no,#ffffff,no,I confirm that my participation has been explained and consent to taking part in the experiment,NA,1,yes,800,hc,droid,28,15,4,C:/Users/russe/Dropbox/Exp_10/New folder/subject-7.csv,droid,Jazzy James,3.1.7,0,4,NA,1,NA,1,1,NA,4,416,NA,103823,NA,541,826,NA,416,2,legacy,Female,1024,2,48000,-16,experiment,7,odd,droid,5318,NA,NA,137123,137543,10439,114806,NA,137124,123870,NA,NA,NA,NA,2378,NA,NA,137543,NA,114264,123043,NA,137125,Runtime for Android template,26,11638,29,0.07692,no,1280,-0.072397008
90,90,22,401.8,401.8,#000000,no,1,droid,legacy,legacy,0,I confirm that my participation has been explained and consent to taking part in the experiment,relative,1,undefined,undefined,1,0,1,0,45,45,0,0,0,45,0,0,0,0,0,0,NA,0,45,0,0,0,NA,45,378,286,04/09/2018 10:46,A template containing a practice and an experimental phase,96,no,800,1280,15.72330189,yes,Exp_10_working.osexp,C:\Users\russe\Dropbox,no,mono,no,32,no,#ffffff,no,I confirm that my participation has been explained and consent to taking part in the experiment,NA,1,yes,800,ce,droid,29,15,8,C:/Users/russe/Dropbox/Exp_10/New folder/subject-7.csv,droid,Jazzy James,3.1.7,0,8,NA,1,NA,1,1,NA,8,416,NA,103823,NA,541,826,NA,416,2,legacy,Female,1024,2,48000,-16,experiment,7,odd,droid,5318,NA,NA,137611,138031,10439,114806,NA,137613,123870,NA,NA,NA,NA,2378,NA,NA,138031,NA,114264,123043,NA,137613,Runtime for Android template,27,12054,30,0.1,no,1280,-0.072397008
90.32258065,90.32258065,22,401.9354839,401.9354839,#000000,no,1,droid,legacy,legacy,0,I confirm that my participation has been explained and consent to taking part in the experiment,relative,1,undefined,undefined,1,0,1,0,46,46,0,0,0,46,0,0,0,0,0,0,NA,0,46,0,0,0,NA,46,842,87,04/09/2018 10:46,A template containing a practice and an experimental phase,96,no,800,1280,15.72330189,yes,Exp_10_working.osexp,C:\Users\russe\Dropbox,no,mono,no,32,no,#ffffff,no,I confirm that my participation has been explained and consent to taking part in the experiment,NA,1,yes,800,ec,droid,30,15,4,C:/Users/russe/Dropbox/Exp_10/New folder/subject-7.csv,droid,Jazzy James,3.1.7,0,4,NA,1,NA,1,1,NA,4,406,NA,103823,NA,541,826,NA,406,2,legacy,Female,1024,2,48000,-16,experiment,7,odd,droid,5318,NA,NA,138102,138511,10439,114806,NA,138103,123870,NA,NA,NA,NA,2378,NA,NA,138511,NA,114264,123043,NA,138103,Runtime for Android template,28,12460,31,0.08333,no,1280,-0.193935589
90.625,90.625,22,402.25,402.25,#000000,no,1,droid,legacy,legacy,0,I confirm that my participation has been explained and consent to taking part in the experiment,relative,1,undefined,undefined,1,0,1,0,47,47,0,0,0,47,0,0,0,0,0,0,NA,0,47,0,0,0,NA,47,739,104,04/09/2018 10:46,A template containing a practice and an experimental phase,96,no,800,1280,15.72330189,yes,Exp_10_working.osexp,C:\Users\russe\Dropbox,no,mono,no,32,no,#ffffff,no,I confirm that my participation has been explained and consent to taking part in the experiment,NA,1,yes,800,cc,droid,31,15,4,C:/Users/russe/Dropbox/Exp_10/New folder/subject-7.csv,droid,Jazzy James,3.1.7,0,4,NA,1,NA,1,1,NA,4,412,NA,103823,NA,541,826,NA,412,2,legacy,Female,1024,2,48000,-16,experiment,7,odd,droid,5318,NA,NA,138559,138975,10439,114806,NA,138561,123870,NA,NA,NA,NA,2378,NA,NA,138975,NA,114264,123043,NA,138561,Runtime for Android template,29,12872,32,0.1,no,1280,-0.12101244
90.90909091,90.90909091,22,403,403,#000000,no,1,droid,legacy,legacy,0,I confirm that my participation has been explained and consent to taking part in the experiment,relative,1,undefined,undefined,1,0,1,0,48,48,0,0,0,48,0,0,0,0,0,0,NA,0,48,0,0,0,NA,48,1024,399,04/09/2018 10:46,A template containing a practice and an experimental phase,96,no,800,1280,15.72330189,yes,Exp_10_working.osexp,C:\Users\russe\Dropbox,no,mono,no,32,no,#ffffff,no,I confirm that my participation has been explained and consent to taking part in the experiment,NA,1,yes,800,ch,droid,32,15,11,C:/Users/russe/Dropbox/Exp_10/New folder/subject-7.csv,droid,Jazzy James,3.1.7,0,11,NA,1,NA,1,1,NA,11,427,NA,103823,NA,541,826,NA,427,2,legacy,Female,1024,2,48000,-16,experiment,7,odd,droid,5318,NA,NA,139040,139472,10439,114806,NA,139042,123870,NA,NA,NA,NA,2378,NA,NA,139472,NA,114264,123043,NA,139042,Runtime for Android template,30,13299,33,0.1,no,1280,0.061295432
91.17647059,91.17647059,22,404.7647059,404.7647059,#000000,no,1,droid,legacy,legacy,0,I confirm that my participation has been explained and consent to taking part in the experiment,relative,1,undefined,undefined,1,0,1,0,49,49,0,0,0,49,0,0,0,0,0,0,NA,0,49,0,0,0,NA,49,274,308,04/09/2018 10:46,A template containing a practice and an experimental phase,96,no,800,1280,15.72330189,yes,Exp_10_working.osexp,C:\Users\russe\Dropbox,no,mono,no,32,no,#ffffff,no,I confirm that my participation has been explained and consent to taking part in the experiment,NA,1,yes,800,he,droid,33,15,8,C:/Users/russe/Dropbox/Exp_10/New folder/subject-7.csv,droid,Jazzy James,3.1.7,0,8,NA,1,NA,1,1,NA,8,463,NA,103823,NA,541,826,NA,463,2,legacy,Female,1024,2,48000,-16,experiment,7,odd,droid,5318,NA,NA,139532,139999,10439,114806,NA,139534,123870,NA,NA,NA,NA,2378,NA,NA,139999,NA,114264,123043,NA,139534,Runtime for Android template,31,13762,34,0.07692,no,1280,0.498834324
88.57142857,88.57142857,22,405.6285714,405.6285714,#000000,no,1,droid,legacy,legacy,0,I confirm that my participation has been explained and consent to taking part in the experiment,relative,0,undefined,undefined,0,0,1,0,50,50,0,0,0,50,0,0,0,0,0,0,NA,0,50,0,0,0,NA,50,816,590,04/09/2018 10:46,A template containing a practice and an experimental phase,96,no,800,1280,15.72330189,yes,Exp_10_working.osexp,C:\Users\russe\Dropbox,no,mono,no,32,no,#ffffff,no,I confirm that my participation has been explained and consent to taking part in the experiment,NA,1,yes,800,ep,droid,34,15,23,C:/Users/russe/Dropbox/Exp_10/New folder/subject-7.csv,droid,Jazzy James,3.1.7,0,16,NA,1,NA,1,1,NA,16,435,NA,103823,NA,541,826,NA,435,2,legacy,Female,1024,2,48000,-16,experiment,7,odd,droid,5318,NA,NA,140056,140495,10439,114806,NA,140057,123870,NA,NA,NA,NA,2378,NA,NA,140495,NA,114264,123043,NA,140058,Runtime for Android template,31,14197,35,0.08333,no,1280,0.158526296
88.88888889,88.88888889,22,405.8888889,405.8888889,#000000,no,1,droid,legacy,legacy,0,I confirm that my participation has been explained and consent to taking part in the experiment,relative,1,undefined,undefined,1,0,1,0,51,51,0,0,0,51,0,0,0,0,0,0,NA,0,51,0,0,0,NA,51,604,300,04/09/2018 10:46,A template containing a practice and an experimental phase,96,no,800,1280,15.72330189,yes,Exp_10_working.osexp,C:\Users\russe\Dropbox,no,mono,no,32,no,#ffffff,no,I confirm that my participation has been explained and consent to taking part in the experiment,NA,1,yes,800,pf,droid,35,15,9,C:/Users/russe/Dropbox/Exp_10/New folder/subject-7.csv,droid,Jazzy James,3.1.7,0,9,NA,1,NA,1,1,NA,9,415,NA,103823,NA,541,826,NA,415,2,legacy,Female,1024,2,48000,-16,experiment,7,odd,droid,5318,NA,NA,140604,141023,10439,114806,NA,140605,123870,NA,NA,NA,NA,2378,NA,NA,141023,NA,114264,123043,NA,140606,Runtime for Android template,32,14612,36,0.2,no,1280,-0.084550866
89.18918919,89.18918919,22,406.4324324,406.4324324,#000000,no,1,droid,legacy,legacy,0,I confirm that my participation has been explained and consent to taking part in the experiment,relative,1,undefined,undefined,1,0,1,0,52,52,0,0,0,52,0,0,0,0,0,0,NA,0,52,0,0,0,NA,52,320,327,04/09/2018 10:46,A template containing a practice and an experimental phase,96,no,800,1280,15.72330189,yes,Exp_10_working.osexp,C:\Users\russe\Dropbox,no,mono,no,32,no,#ffffff,no,I confirm that my participation has been explained and consent to taking part in the experiment,NA,1,yes,800,fe,droid,36,15,8,C:/Users/russe/Dropbox/Exp_10/New folder/subject-7.csv,droid,Jazzy James,3.1.7,0,8,NA,1,NA,1,1,NA,8,426,NA,103823,NA,541,826,NA,426,2,legacy,Female,1024,2,48000,-16,experiment,7,odd,droid,5318,NA,NA,141074,141504,10439,114806,NA,141075,123870,NA,NA,NA,NA,2378,NA,NA,141504,NA,114264,123043,NA,141075,Runtime for Android template,33,15038,37,0.33333,no,1280,0.049141573
89.47368421,89.47368421,22,408.0789474,408.0789474,#000000,no,1,droid,legacy,legacy,0,I confirm that my participation has been explained and consent to taking part in the experiment,relative,1,undefined,undefined,1,0,1,0,53,53,0,0,0,53,0,0,0,0,0,0,NA,0,53,0,0,0,NA,53,979,361,04/09/2018 10:46,A template containing a practice and an experimental phase,96,no,800,1280,15.72330189,yes,Exp_10_working.osexp,C:\Users\russe\Dropbox,no,mono,no,32,no,#ffffff,no,I confirm that my participation has been explained and consent to taking part in the experiment,NA,1,yes,800,eh,droid,37,15,11,C:/Users/russe/Dropbox/Exp_10/New folder/subject-7.csv,droid,Jazzy James,3.1.7,0,11,NA,1,NA,1,1,NA,11,469,NA,103823,NA,541,826,NA,469,2,legacy,Female,1024,2,48000,-16,experiment,7,odd,droid,5318,NA,NA,141558,142031,10439,114806,NA,141560,123870,NA,NA,NA,NA,2378,NA,NA,142031,NA,114264,123043,NA,141560,Runtime for Android template,34,15507,38,0.08333,no,1280,0.571757472
89.74358974,89.74358974,22,409.3076923,409.3076923,#000000,no,1,droid,legacy,legacy,0,I confirm that my participation has been explained and consent to taking part in the experiment,relative,1,undefined,undefined,1,0,1,0,54,54,0,0,0,54,0,0,0,0,0,0,NA,0,54,0,0,0,NA,54,310,723,04/09/2018 10:46,A template containing a practice and an experimental phase,96,no,800,1280,15.72330189,yes,Exp_10_working.osexp,C:\Users\russe\Dropbox,no,mono,no,32,no,#ffffff,no,I confirm that my participation has been explained and consent to taking part in the experiment,NA,1,yes,800,hm,droid,38,15,20,C:/Users/russe/Dropbox/Exp_10/New folder/subject-7.csv,droid,Jazzy James,3.1.7,0,20,NA,1,NA,1,1,NA,20,456,NA,103823,NA,541,826,NA,456,2,legacy,Female,1024,2,48000,-16,experiment,7,odd,droid,5318,NA,NA,142091,142552,10439,114806,NA,142093,123870,NA,NA,NA,NA,2378,NA,NA,142552,NA,114264,123043,NA,142093,Runtime for Android template,35,15963,39,0.07692,no,1280,0.413757317
90,90,22,408.375,408.375,#000000,no,1,droid,legacy,legacy,0,I confirm that my participation has been explained and consent to taking part in the experiment,relative,1,undefined,undefined,1,0,1,0,55,55,0,0,0,55,0,0,0,0,0,0,NA,0,55,0,0,0,NA,55,440,276,04/09/2018 10:46,A template containing a practice and an experimental phase,96,no,800,1280,15.72330189,yes,Exp_10_working.osexp,C:\Users\russe\Dropbox,no,mono,no,32,no,#ffffff,no,I confirm that my participation has been explained and consent to taking part in the experiment,NA,1,yes,800,mf,droid,39,15,9,C:/Users/russe/Dropbox/Exp_10/New folder/subject-7.csv,droid,Jazzy James,3.1.7,0,9,NA,1,NA,1,1,NA,9,372,NA,103823,NA,541,826,NA,372,2,legacy,Female,1024,2,48000,-16,experiment,7,odd,droid,5318,NA,NA,142599,142975,10439,114806,NA,142601,123870,NA,NA,NA,NA,2378,NA,NA,142975,NA,114264,123043,NA,142601,Runtime for Android template,36,16335,40,0.11111,no,1280,-0.607166765
90.24390244,90.24390244,22,409.4146341,409.4146341,#000000,no,1,droid,legacy,legacy,0,I confirm that my participation has been explained and consent to taking part in the experiment,relative,1,undefined,undefined,1,0,1,0,56,56,0,0,0,56,0,0,0,0,0,0,NA,0,56,0,0,0,NA,56,282,782,04/09/2018 10:46,A template containing a practice and an experimental phase,96,no,800,1280,15.72330189,yes,Exp_10_working.osexp,C:\Users\russe\Dropbox,no,mono,no,32,no,#ffffff,no,I confirm that my participation has been explained and consent to taking part in the experiment,NA,1,yes,800,fm,droid,40,15,20,C:/Users/russe/Dropbox/Exp_10/New folder/subject-7.csv,droid,Jazzy James,3.1.7,0,20,NA,1,NA,1,1,NA,20,451,NA,103823,NA,541,826,NA,451,2,legacy,Female,1024,2,48000,-16,experiment,7,odd,droid,5318,NA,NA,143017,143471,10439,114806,NA,143018,123870,NA,NA,NA,NA,2378,NA,NA,143471,NA,114264,123043,NA,143018,Runtime for Android template,37,16786,41,0.33333,no,1280,0.352988026
90.47619048,90.47619048,22,410.7857143,410.7857143,#000000,no,1,droid,legacy,legacy,0,I confirm that my participation has been explained and consent to taking part in the experiment,relative,1,undefined,undefined,1,0,1,0,57,57,0,0,0,57,0,0,0,0,0,0,NA,0,57,0,0,0,NA,57,544,709,04/09/2018 10:46,A template containing a practice and an experimental phase,96,no,800,1280,15.72330189,yes,Exp_10_working.osexp,C:\Users\russe\Dropbox,no,mono,no,32,no,#ffffff,no,I confirm that my participation has been explained and consent to taking part in the experiment,NA,1,yes,800,mn,droid,41,15,21,C:/Users/russe/Dropbox/Exp_10/New folder/subject-7.csv,droid,Jazzy James,3.1.7,0,21,NA,1,NA,1,1,NA,21,467,NA,103823,NA,541,826,NA,467,2,legacy,Female,1024,2,48000,-16,experiment,7,odd,droid,5318,NA,NA,143577,144047,10439,114806,NA,143578,123870,NA,NA,NA,NA,2378,NA,NA,144047,NA,114264,123043,NA,143578,Runtime for Android template,38,17253,42,0.11111,no,1280,0.547449756
90.69767442,90.69767442,22,411.627907,411.627907,#000000,no,1,droid,legacy,legacy,0,I confirm that my participation has been explained and consent to taking part in the experiment,relative,1,undefined,undefined,1,0,1,0,58,58,0,0,0,58,0,0,0,0,0,0,NA,0,58,0,0,0,NA,58,930,242,04/09/2018 10:46,A template containing a practice and an experimental phase,96,no,800,1280,15.72330189,yes,Exp_10_working.osexp,C:\Users\russe\Dropbox,no,mono,no,32,no,#ffffff,no,I confirm that my participation has been explained and consent to taking part in the experiment,NA,4,yes,800,nh,droid,42,15,11,C:/Users/russe/Dropbox/Exp_10/New folder/subject-7.csv,droid,Jazzy James,3.1.7,0,11,NA,1,NA,1,1,NA,11,447,NA,103823,NA,541,826,NA,447,2,legacy,Female,1024,2,48000,-16,experiment,7,odd,droid,5318,NA,NA,144092,144543,10439,114806,NA,144094,123870,NA,NA,NA,NA,2378,NA,NA,144543,NA,114264,123043,NA,144094,Runtime for Android template,39,17700,43,0.8,no,1280,0.304372594
90.90909091,90.90909091,22,410.9545455,410.9545455,#000000,no,1,droid,legacy,legacy,0,I confirm that my participation has been explained and consent to taking part in the experiment,relative,1,undefined,undefined,1,0,1,0,59,59,0,0,0,59,0,0,0,0,0,0,NA,0,59,0,0,0,NA,59,999,599,04/09/2018 10:46,A template containing a practice and an experimental phase,96,no,800,1280,15.72330189,yes,Exp_10_working.osexp,C:\Users\russe\Dropbox,no,mono,no,32,no,#ffffff,no,I confirm that my participation has been explained and consent to taking part in the experiment,NA,1,yes,800,hl,droid,43,15,17,C:/Users/russe/Dropbox/Exp_10/New folder/subject-7.csv,droid,Jazzy James,3.1.7,0,17,NA,1,NA,1,1,NA,17,382,NA,103823,NA,541,826,NA,382,2,legacy,Female,1024,2,48000,-16,experiment,7,odd,droid,5318,NA,NA,144621,145007,10439,114806,NA,144623,123870,NA,NA,NA,NA,2378,NA,NA,145007,NA,114264,123043,NA,144623,Runtime for Android template,40,18082,44,0.07692,no,1280,-0.485628183
91.11111111,91.11111111,22,410.1777778,410.1777778,#000000,no,1,droid,legacy,legacy,0,I confirm that my participation has been explained and consent to taking part in the experiment,relative,1,undefined,undefined,1,0,1,0,60,60,0,0,0,60,0,0,0,0,0,0,NA,0,60,0,0,0,NA,60,816,537,04/09/2018 10:46,A template containing a practice and an experimental phase,96,no,800,1280,15.72330189,yes,Exp_10_working.osexp,C:\Users\russe\Dropbox,no,mono,no,32,no,#ffffff,no,I confirm that my participation has been explained and consent to taking part in the experiment,NA,1,yes,800,lk,droid,44,15,16,C:/Users/russe/Dropbox/Exp_10/New folder/subject-7.csv,droid,Jazzy James,3.1.7,0,16,NA,1,NA,1,1,NA,16,376,NA,103823,NA,541,826,NA,376,2,legacy,Female,1024,2,48000,-16,experiment,7,odd,droid,5318,NA,NA,145068,145447,10439,114806,NA,145069,123870,NA,NA,NA,NA,2378,NA,NA,145447,NA,114264,123043,NA,145069,Runtime for Android template,41,18458,45,0.25,no,1280,-0.558551332
89.13043478,89.13043478,22,410.2173913,410.2173913,#000000,no,1,droid,legacy,legacy,0,I confirm that my participation has been explained and consent to taking part in the experiment,relative,0,undefined,undefined,0,0,1,0,61,61,0,0,0,61,0,0,0,0,0,0,NA,0,61,0,0,0,NA,61,903,498,04/09/2018 10:46,A template containing a practice and an experimental phase,96,no,800,1280,15.72330189,yes,Exp_10_working.osexp,C:\Users\russe\Dropbox,no,mono,no,32,no,#ffffff,no,I confirm that my participation has been explained and consent to taking part in the experiment,NA,1,yes,800,kk,droid,45,15,16,C:/Users/russe/Dropbox/Exp_10/New folder/subject-7.csv,droid,Jazzy James,3.1.7,0,17,NA,1,NA,1,1,NA,17,412,NA,103823,NA,541,826,NA,412,2,legacy,Female,1024,2,48000,-16,experiment,7,odd,droid,5318,NA,NA,145503,145920,10439,114806,NA,145505,123870,NA,NA,NA,NA,2378,NA,NA,145920,NA,114264,123043,NA,145505,Runtime for Android template,41,18870,46,0.125,no,1280,-0.12101244
89.36170213,89.36170213,22,409.9148936,409.9148936,#000000,no,1,droid,legacy,legacy,0,I confirm that my participation has been explained and consent to taking part in the experiment,relative,1,undefined,undefined,1,0,1,0,62,62,0,0,0,62,0,0,0,0,0,0,NA,0,62,0,0,0,NA,62,945,336,04/09/2018 10:46,A template containing a practice and an experimental phase,96,no,800,1280,15.72330189,yes,Exp_10_working.osexp,C:\Users\russe\Dropbox,no,mono,no,32,no,#ffffff,no,I confirm that my participation has been explained and consent to taking part in the experiment,NA,2,yes,800,kh,droid,46,15,11,C:/Users/russe/Dropbox/Exp_10/New folder/subject-7.csv,droid,Jazzy James,3.1.7,0,11,NA,1,NA,1,1,NA,11,396,NA,103823,NA,541,826,NA,396,2,legacy,Female,1024,2,48000,-16,experiment,7,odd,droid,5318,NA,NA,145984,146383,10439,114806,NA,145985,123870,NA,NA,NA,NA,2378,NA,NA,146383,NA,114264,123043,NA,145985,Runtime for Android template,42,19266,47,0.25,no,1280,-0.31547417
89.58333333,89.58333333,22,410.3333333,410.3333333,#000000,no,1,droid,legacy,legacy,0,I confirm that my participation has been explained and consent to taking part in the experiment,relative,1,undefined,undefined,1,0,1,0,63,63,0,0,0,63,0,0,0,0,0,0,NA,0,63,0,0,0,NA,63,785,188,04/09/2018 10:46,A template containing a practice and an experimental phase,96,no,800,1280,15.72330189,yes,Exp_10_working.osexp,C:\Users\russe\Dropbox,no,mono,no,32,no,#ffffff,no,I confirm that my participation has been explained and consent to taking part in the experiment,NA,1,yes,800,hd,droid,47,15,4,C:/Users/russe/Dropbox/Exp_10/New folder/subject-7.csv,droid,Jazzy James,3.1.7,0,4,NA,1,NA,1,1,NA,4,430,NA,103823,NA,541,826,NA,430,2,legacy,Female,1024,2,48000,-16,experiment,7,odd,droid,5318,NA,NA,146470,146903,10439,114806,NA,146471,123870,NA,NA,NA,NA,2378,NA,NA,146903,NA,114264,123043,NA,146471,Runtime for Android template,43,19696,48,0.07692,no,1280,0.097757006
89.79591837,89.79591837,22,410.2040816,410.2040816,#000000,no,1,droid,legacy,legacy,0,I confirm that my participation has been explained and consent to taking part in the experiment,relative,1,undefined,undefined,1,0,1,0,64,64,0,0,0,64,0,0,0,0,0,0,NA,0,64,0,0,0,NA,64,806,614,04/09/2018 10:46,A template containing a practice and an experimental phase,96,no,800,1280,15.72330189,yes,Exp_10_working.osexp,C:\Users\russe\Dropbox,no,mono,no,32,no,#ffffff,no,I confirm that my participation has been explained and consent to taking part in the experiment,NA,1,yes,800,do,droid,48,15,22,C:/Users/russe/Dropbox/Exp_10/New folder/subject-7.csv,droid,Jazzy James,3.1.7,0,22,NA,1,NA,1,1,NA,22,404,NA,103823,NA,541,826,NA,404,2,legacy,Female,1024,2,48000,-16,experiment,7,odd,droid,5318,NA,NA,146959,147367,10439,114806,NA,146961,123870,NA,NA,NA,NA,2378,NA,NA,147368,NA,114264,123043,NA,146961,Runtime for Android template,44,20100,49,0.33333,no,1280,-0.218243305
90,90,22,411,411,#000000,no,1,droid,legacy,legacy,0,I confirm that my participation has been explained and consent to taking part in the experiment,relative,1,undefined,undefined,1,0,1,0,65,65,0,0,0,65,0,0,0,0,0,0,NA,0,65,0,0,0,NA,65,472,682,04/09/2018 10:46,A template containing a practice and an experimental phase,96,no,800,1280,15.72330189,yes,Exp_10_working.osexp,C:\Users\russe\Dropbox,no,mono,no,32,no,#ffffff,no,I confirm that my participation has been explained and consent to taking part in the experiment,NA,1,yes,800,on,droid,49,15,21,C:/Users/russe/Dropbox/Exp_10/New folder/subject-7.csv,droid,Jazzy James,3.1.7,0,21,NA,1,NA,1,1,NA,21,450,NA,103823,NA,541,826,NA,450,2,legacy,Female,1024,2,48000,-16,experiment,7,odd,droid,5318,NA,NA,147433,147888,10439,114806,NA,147435,123870,NA,NA,NA,NA,2378,NA,NA,147888,NA,114264,123043,NA,147435,Runtime for Android template,45,20550,50,0.0625,no,1280,0.340834168
90.19607843,90.19607843,22,409.4509804,409.4509804,#000000,no,1,droid,legacy,legacy,0,I confirm that my participation has been explained and consent to taking part in the experiment,relative,1,undefined,undefined,1,0,1,0,66,66,0,0,0,66,0,0,0,0,0,0,NA,0,66,0,0,0,NA,66,750,542,04/09/2018 10:46,A template containing a practice and an experimental phase,96,no,800,1280,15.72330189,yes,Exp_10_working.osexp,C:\Users\russe\Dropbox,no,mono,no,32,no,#ffffff,no,I confirm that my participation has been explained and consent to taking part in the experiment,NA,1,yes,800,nk,droid,50,15,16,C:/Users/russe/Dropbox/Exp_10/New folder/subject-7.csv,droid,Jazzy James,3.1.7,0,16,NA,1,NA,1,1,NA,16,332,NA,103823,NA,541,826,NA,332,2,legacy,Female,1024,2,48000,-16,experiment,7,odd,droid,5318,NA,NA,147983,148319,10439,114806,NA,147985,123870,NA,NA,NA,NA,2378,NA,NA,148319,NA,114264,123043,NA,147985,Runtime for Android template,46,20882,51,0.2,no,1280,-1.093321089
90.38461538,90.38461538,22,409.4615385,409.4615385,#000000,no,1,droid,legacy,legacy,0,I confirm that my participation has been explained and consent to taking part in the experiment,relative,1,undefined,undefined,1,0,1,0,67,67,0,0,0,67,0,0,0,0,0,0,NA,0,67,0,0,0,NA,67,394,318,04/09/2018 10:46,A template containing a practice and an experimental phase,96,no,800,1280,15.72330189,yes,Exp_10_working.osexp,C:\Users\russe\Dropbox,no,mono,no,32,no,#ffffff,no,I confirm that my participation has been explained and consent to taking part in the experiment,NA,1,yes,800,ke,droid,51,15,8,C:/Users/russe/Dropbox/Exp_10/New folder/subject-7.csv,droid,Jazzy James,3.1.7,0,8,NA,1,NA,1,1,NA,8,410,NA,103823,NA,541,826,NA,410,2,legacy,Female,1024,2,48000,-16,experiment,7,odd,droid,5318,NA,NA,148386,148799,10439,114806,NA,148387,123870,NA,NA,NA,NA,2378,NA,NA,148799,NA,114264,123043,NA,148387,Runtime for Android template,47,21292,52,0.125,no,1280,-0.145320156
90.56603774,90.56603774,22,408.8113208,408.8113208,#000000,no,1,droid,legacy,legacy,0,I confirm that my participation has been explained and consent to taking part in the experiment,relative,1,undefined,undefined,1,0,1,0,68,68,0,0,0,68,0,0,0,0,0,0,NA,0,68,0,0,0,NA,68,707,615,04/09/2018 10:46,A template containing a practice and an experimental phase,96,no,800,1280,15.72330189,yes,Exp_10_working.osexp,C:\Users\russe\Dropbox,no,mono,no,32,no,#ffffff,no,I confirm that my participation has been explained and consent to taking part in the experiment,NA,1,yes,800,eo,droid,52,15,22,C:/Users/russe/Dropbox/Exp_10/New folder/subject-7.csv,droid,Jazzy James,3.1.7,0,22,NA,1,NA,1,1,NA,22,375,NA,103823,NA,541,826,NA,375,2,legacy,Female,1024,2,48000,-16,experiment,7,odd,droid,5318,NA,NA,148860,149239,10439,114806,NA,148862,123870,NA,NA,NA,NA,2378,NA,NA,149239,NA,114264,123043,NA,148862,Runtime for Android template,48,21667,53,0.08333,no,1280,-0.57070519
88.88888889,88.88888889,22,409.1666667,409.1666667,#000000,no,1,droid,legacy,legacy,0,I confirm that my participation has been explained and consent to taking part in the experiment,relative,0,undefined,undefined,0,0,1,0,69,69,0,0,0,69,0,0,0,0,0,0,NA,0,69,0,0,0,NA,69,341,219,04/09/2018 10:46,A template containing a practice and an experimental phase,96,no,800,1280,15.72330189,yes,Exp_10_working.osexp,C:\Users\russe\Dropbox,no,mono,no,32,no,#ffffff,no,I confirm that my participation has been explained and consent to taking part in the experiment,NA,4,yes,800,oa,droid,53,15,2,C:/Users/russe/Dropbox/Exp_10/New folder/subject-7.csv,droid,Jazzy James,3.1.7,0,8,NA,1,NA,1,1,NA,8,428,NA,103823,NA,541,826,NA,428,2,legacy,Female,1024,2,48000,-16,experiment,7,odd,droid,5318,NA,NA,149303,149735,10439,114806,NA,149305,123870,NA,NA,NA,NA,2378,NA,NA,149735,NA,114264,123043,NA,149305,Runtime for Android template,48,22095,54,0.25,no,1280,0.07344929
89.09090909,89.09090909,22,408.0181818,408.0181818,#000000,no,1,droid,legacy,legacy,0,I confirm that my participation has been explained and consent to taking part in the experiment,relative,1,undefined,undefined,1,0,1,0,70,70,0,0,0,70,0,0,0,0,0,0,NA,0,70,0,0,0,NA,70,358,306,04/09/2018 10:46,A template containing a practice and an experimental phase,96,no,800,1280,15.72330189,yes,Exp_10_working.osexp,C:\Users\russe\Dropbox,no,mono,no,32,no,#ffffff,no,I confirm that my participation has been explained and consent to taking part in the experiment,NA,1,yes,800,ae,droid,54,15,8,C:/Users/russe/Dropbox/Exp_10/New folder/subject-7.csv,droid,Jazzy James,3.1.7,0,8,NA,1,NA,1,1,NA,8,346,NA,103823,NA,541,826,NA,346,2,legacy,Female,1024,2,48000,-16,experiment,7,odd,droid,5318,NA,NA,149793,150144,10439,114806,NA,149795,123870,NA,NA,NA,NA,2378,NA,NA,150144,NA,114264,123043,NA,149795,Runtime for Android template,49,22441,55,0.16667,no,1280,-0.923167075
89.28571429,89.28571429,22,408.4821429,408.4821429,#000000,no,1,droid,legacy,legacy,0,I confirm that my participation has been explained and consent to taking part in the experiment,relative,1,undefined,undefined,1,0,1,0,71,71,0,0,0,71,0,0,0,0,0,0,NA,0,71,0,0,0,NA,71,376,615,04/09/2018 10:46,A template containing a practice and an experimental phase,96,no,800,1280,15.72330189,yes,Exp_10_working.osexp,C:\Users\russe\Dropbox,no,mono,no,32,no,#ffffff,no,I confirm that my participation has been explained and consent to taking part in the experiment,NA,1,yes,800,em,droid,55,15,20,C:/Users/russe/Dropbox/Exp_10/New folder/subject-7.csv,droid,Jazzy James,3.1.7,0,20,NA,1,NA,1,1,NA,20,434,NA,103823,NA,541,826,NA,434,2,legacy,Female,1024,2,48000,-16,experiment,7,odd,droid,5318,NA,NA,150225,150663,10439,114806,NA,150227,123870,NA,NA,NA,NA,2378,NA,NA,150663,NA,114264,123043,NA,150227,Runtime for Android template,50,22875,56,0.08333,no,1280,0.146372438
89.47368421,89.47368421,22,407.7368421,407.7368421,#000000,no,1,droid,legacy,legacy,0,I confirm that my participation has been explained and consent to taking part in the experiment,relative,1,undefined,undefined,1,0,1,0,72,72,0,0,0,72,0,0,0,0,0,0,NA,0,72,0,0,0,NA,72,802,695,04/09/2018 10:46,A template containing a practice and an experimental phase,96,no,800,1280,15.72330189,yes,Exp_10_working.osexp,C:\Users\russe\Dropbox,no,mono,no,32,no,#ffffff,no,I confirm that my participation has been explained and consent to taking part in the experiment,NA,2,yes,800,mo,droid,56,15,22,C:/Users/russe/Dropbox/Exp_10/New folder/subject-7.csv,droid,Jazzy James,3.1.7,0,22,NA,1,NA,1,1,NA,22,366,NA,103823,NA,541,826,NA,366,2,legacy,Female,1024,2,48000,-16,experiment,7,odd,droid,5318,NA,NA,150717,151088,10439,114806,NA,150719,123870,NA,NA,NA,NA,2378,NA,NA,151088,NA,114264,123043,NA,150719,Runtime for Android template,51,23241,57,0.22222,no,1280,-0.680089913
89.65517241,89.65517241,22,406.1551724,406.1551724,#000000,no,1,droid,legacy,legacy,0,I confirm that my participation has been explained and consent to taking part in the experiment,relative,1,undefined,undefined,1,0,1,0,73,73,0,0,0,73,0,0,0,0,0,0,NA,0,73,0,0,0,NA,73,738,650,04/09/2018 10:46,A template containing a practice and an experimental phase,96,no,800,1280,15.72330189,yes,Exp_10_working.osexp,C:\Users\russe\Dropbox,no,mono,no,32,no,#ffffff,no,I confirm that my participation has been explained and consent to taking part in the experiment,NA,1,yes,800,oo,droid,57,15,22,C:/Users/russe/Dropbox/Exp_10/New folder/subject-7.csv,droid,Jazzy James,3.1.7,0,22,NA,1,NA,1,1,NA,22,316,NA,103823,NA,541,826,NA,316,2,legacy,Female,1024,2,48000,-16,experiment,7,odd,droid,5318,NA,NA,151176,151495,10439,114806,NA,151177,123870,NA,NA,NA,NA,2378,NA,NA,151495,NA,114264,123043,NA,151177,Runtime for Android template,52,23557,58,0.0625,no,1280,-1.287782819
89.83050847,89.83050847,22,406.4745763,406.4745763,#000000,no,1,droid,legacy,legacy,0,I confirm that my participation has been explained and consent to taking part in the experiment,relative,1,undefined,undefined,1,0,1,0,74,74,0,0,0,74,0,0,0,0,0,0,NA,0,74,0,0,0,NA,74,914,622,04/09/2018 10:46,A template containing a practice and an experimental phase,96,no,800,1280,15.72330189,yes,Exp_10_working.osexp,C:\Users\russe\Dropbox,no,mono,no,32,no,#ffffff,no,I confirm that my participation has been explained and consent to taking part in the experiment,NA,1,yes,800,op,droid,58,15,23,C:/Users/russe/Dropbox/Exp_10/New folder/subject-7.csv,droid,Jazzy James,3.1.7,0,23,NA,1,NA,1,1,NA,23,425,NA,103823,NA,541,826,NA,425,2,legacy,Female,1024,2,48000,-16,experiment,7,odd,droid,5318,NA,NA,151546,151976,10439,114806,NA,151547,123870,NA,NA,NA,NA,2378,NA,NA,151976,NA,114264,123043,NA,151548,Runtime for Android template,53,23982,59,0.0625,no,1280,0.036987715
90,90,22,406.3666667,406.3666667,#000000,no,1,droid,legacy,legacy,0,I confirm that my participation has been explained and consent to taking part in the experiment,relative,1,undefined,undefined,1,0,1,0,75,75,0,0,0,75,0,0,0,0,0,0,NA,0,75,0,0,0,NA,75,795,266,04/09/2018 10:46,A template containing a practice and an experimental phase,96,no,800,1280,15.72330189,yes,Exp_10_working.osexp,C:\Users\russe\Dropbox,no,mono,no,32,no,#ffffff,no,I confirm that my participation has been explained and consent to taking part in the experiment,NA,1,yes,800,pg,droid,59,15,10,C:/Users/russe/Dropbox/Exp_10/New folder/subject-7.csv,droid,Jazzy James,3.1.7,0,10,NA,1,NA,1,1,NA,10,400,NA,103823,NA,541,826,NA,400,2,legacy,Female,1024,2,48000,-16,experiment,7,odd,droid,5318,NA,NA,152027,152431,10439,114806,NA,152029,123870,NA,NA,NA,NA,2378,NA,NA,152431,NA,114264,123043,NA,152029,Runtime for Android template,54,24382,60,0.2,no,1280,-0.266858737
88.52459016,88.52459016,22,405.5737705,405.5737705,#000000,no,1,droid,legacy,legacy,0,I confirm that my participation has been explained and consent to taking part in the experiment,relative,0,undefined,undefined,0,0,1,0,76,76,0,0,0,76,0,0,0,0,0,0,NA,0,76,0,0,0,NA,76,514,595,04/09/2018 10:46,A template containing a practice and an experimental phase,96,no,800,1280,15.72330189,yes,Exp_10_working.osexp,C:\Users\russe\Dropbox,no,mono,no,32,no,#ffffff,no,I confirm that my participation has been explained and consent to taking part in the experiment,NA,1,yes,800,gm,droid,60,15,20,C:/Users/russe/Dropbox/Exp_10/New folder/subject-7.csv,droid,Jazzy James,3.1.7,0,15,NA,1,NA,1,1,NA,15,358,NA,103823,NA,541,826,NA,358,2,legacy,Female,1024,2,48000,-16,experiment,7,odd,droid,5318,NA,NA,152501,152863,10439,114806,NA,152503,123870,NA,NA,NA,NA,2378,NA,NA,152863,NA,114264,123043,NA,152503,Runtime for Android template,54,24740,61,0.2,no,1280,-0.777320778
88.70967742,88.70967742,22,406.0645161,406.0645161,#000000,no,1,droid,legacy,legacy,0,I confirm that my participation has been explained and consent to taking part in the experiment,relative,1,undefined,undefined,1,0,1,0,77,77,0,0,0,77,0,0,0,0,0,0,NA,0,77,0,0,0,NA,77,334,272,04/09/2018 10:46,A template containing a practice and an experimental phase,96,no,800,1280,15.72330189,yes,Exp_10_working.osexp,C:\Users\russe\Dropbox,no,mono,no,32,no,#ffffff,no,I confirm that my participation has been explained and consent to taking part in the experiment,NA,2,yes,800,me,droid,61,15,8,C:/Users/russe/Dropbox/Exp_10/New folder/subject-7.csv,droid,Jazzy James,3.1.7,0,8,NA,1,NA,1,1,NA,8,436,NA,103823,NA,541,826,NA,436,2,legacy,Female,1024,2,48000,-16,experiment,7,odd,droid,5318,NA,NA,152919,153359,10439,114806,NA,152921,123870,NA,NA,NA,NA,2378,NA,NA,153359,NA,114264,123043,NA,152921,Runtime for Android template,55,25176,62,0.22222,no,1280,0.170680155
88.88888889,88.88888889,22,406.3650794,406.3650794,#000000,no,1,droid,legacy,legacy,0,I confirm that my participation has been explained and consent to taking part in the experiment,relative,1,undefined,undefined,1,0,1,0,78,78,0,0,0,78,0,0,0,0,0,0,NA,0,78,0,0,0,NA,78,714,151,04/09/2018 10:46,A template containing a practice and an experimental phase,96,no,800,1280,15.72330189,yes,Exp_10_working.osexp,C:\Users\russe\Dropbox,no,mono,no,32,no,#ffffff,no,I confirm that my participation has been explained and consent to taking part in the experiment,NA,1,yes,800,ed,droid,62,15,4,C:/Users/russe/Dropbox/Exp_10/New folder/subject-7.csv,droid,Jazzy James,3.1.7,0,4,NA,1,NA,1,1,NA,4,425,NA,103823,NA,541,826,NA,425,2,legacy,Female,1024,2,48000,-16,experiment,7,odd,droid,5318,NA,NA,153418,153848,10439,114806,NA,153419,123870,NA,NA,NA,NA,2378,NA,NA,153848,NA,114264,123043,NA,153420,Runtime for Android template,56,25601,63,0.83333,no,1280,0.036987715
89.0625,89.0625,22,407.265625,407.265625,#000000,no,1,droid,legacy,legacy,0,I confirm that my participation has been explained and consent to taking part in the experiment,relative,1,undefined,undefined,1,0,1,0,79,79,0,0,0,79,0,0,0,0,0,0,NA,0,79,0,0,0,NA,79,338,35,04/09/2018 10:46,A template containing a practice and an experimental phase,96,no,800,1280,15.72330189,yes,Exp_10_working.osexp,C:\Users\russe\Dropbox,no,mono,no,32,no,#ffffff,no,I confirm that my participation has been explained and consent to taking part in the experiment,NA,1,yes,800,da,droid,63,15,2,C:/Users/russe/Dropbox/Exp_10/New folder/subject-7.csv,droid,Jazzy James,3.1.7,0,2,NA,1,NA,1,1,NA,2,464,NA,103823,NA,541,826,NA,464,2,legacy,Female,1024,2,48000,-16,experiment,7,odd,droid,5318,NA,NA,153915,154385,10439,114806,NA,153917,123870,NA,NA,NA,NA,2378,NA,NA,154385,NA,114264,123043,NA,153917,Runtime for Android template,57,26065,64,0.33333,no,1280,0.510988182
89.23076923,89.23076923,22,408,408,#000000,no,1,droid,legacy,legacy,0,I confirm that my participation has been explained and consent to taking part in the experiment,relative,1,undefined,undefined,1,0,1,0,80,80,0,0,0,80,0,0,0,0,0,0,NA,0,80,0,0,0,NA,80,525,152,04/09/2018 10:46,A template containing a practice and an experimental phase,96,no,800,1280,15.72330189,yes,Exp_10_working.osexp,C:\Users\russe\Dropbox,no,mono,no,32,no,#ffffff,no,I confirm that my participation has been explained and consent to taking part in the experiment,NA,2,yes,800,ab,droid,64,15,3,C:/Users/russe/Dropbox/Exp_10/New folder/subject-7.csv,droid,Jazzy James,3.1.7,0,3,NA,1,NA,1,1,NA,3,455,NA,103823,NA,541,826,NA,455,2,legacy,Female,1024,2,48000,-16,experiment,7,odd,droid,5318,NA,NA,154444,154903,10439,114806,NA,154446,123870,NA,NA,NA,NA,2378,NA,NA,154903,NA,114264,123043,NA,154446,Runtime for Android template,58,26520,65,0.33333,no,1280,0.401603459
89.39393939,89.39393939,22,408.6212121,408.6212121,#000000,no,1,droid,legacy,legacy,0,I confirm that my participation has been explained and consent to taking part in the experiment,relative,1,undefined,undefined,1,0,1,0,81,81,0,0,0,81,0,0,0,0,0,0,NA,0,81,0,0,0,NA,81,905,603,04/09/2018 10:46,A template containing a practice and an experimental phase,96,no,800,1280,15.72330189,yes,Exp_10_working.osexp,C:\Users\russe\Dropbox,no,mono,no,32,no,#ffffff,no,I confirm that my participation has been explained and consent to taking part in the experiment,NA,1,yes,800,bp,droid,65,15,23,C:/Users/russe/Dropbox/Exp_10/New folder/subject-7.csv,droid,Jazzy James,3.1.7,0,23,NA,1,NA,1,1,NA,23,449,NA,103823,NA,541,826,NA,449,2,legacy,Female,1024,2,48000,-16,experiment,7,odd,droid,5318,NA,NA,154962,155416,10439,114806,NA,154964,123870,NA,NA,NA,NA,2378,NA,NA,155416,NA,114264,123043,NA,154964,Runtime for Android template,59,26969,66,0.125,no,1280,0.32868031
89.55223881,89.55223881,22,409.0447761,409.0447761,#000000,no,1,droid,legacy,legacy,0,I confirm that my participation has been explained and consent to taking part in the experiment,relative,1,undefined,undefined,1,0,1,0,82,82,0,0,0,82,0,0,0,0,0,0,NA,0,82,0,0,0,NA,82,259,277,04/09/2018 10:46,A template containing a practice and an experimental phase,96,no,800,1280,15.72330189,yes,Exp_10_working.osexp,C:\Users\russe\Dropbox,no,mono,no,32,no,#ffffff,no,I confirm that my participation has been explained and consent to taking part in the experiment,NA,1,yes,800,pe,droid,66,15,8,C:/Users/russe/Dropbox/Exp_10/New folder/subject-7.csv,droid,Jazzy James,3.1.7,0,8,NA,1,NA,1,1,NA,8,437,NA,103823,NA,541,826,NA,437,2,legacy,Female,1024,2,48000,-16,experiment,7,odd,droid,5318,NA,NA,155470,155912,10439,114806,NA,155472,123870,NA,NA,NA,NA,2378,NA,NA,155912,NA,114264,123043,NA,155472,Runtime for Android template,60,27406,67,0.2,no,1280,0.182834013
89.70588235,89.70588235,22,407.5441176,407.5441176,#000000,no,1,droid,legacy,legacy,0,I confirm that my participation has been explained and consent to taking part in the experiment,relative,1,undefined,undefined,1,0,1,0,83,83,0,0,0,83,0,0,0,0,0,0,NA,0,83,0,0,0,NA,83,349,325,04/09/2018 10:46,A template containing a practice and an experimental phase,96,no,800,1280,15.72330189,yes,Exp_10_working.osexp,C:\Users\russe\Dropbox,no,mono,no,32,no,#ffffff,no,I confirm that my participation has been explained and consent to taking part in the experiment,NA,2,yes,800,ee,droid,67,15,8,C:/Users/russe/Dropbox/Exp_10/New folder/subject-7.csv,droid,Jazzy James,3.1.7,0,8,NA,1,NA,1,1,NA,8,307,NA,103823,NA,541,826,NA,307,2,legacy,Female,1024,2,48000,-16,experiment,7,odd,droid,5318,NA,NA,155969,156279,10439,114806,NA,155970,123870,NA,NA,NA,NA,2378,NA,NA,156279,NA,114264,123043,NA,155970,Runtime for Android template,61,27713,68,0.16667,no,1280,-1.397167542
89.85507246,89.85507246,22,407.826087,407.826087,#000000,no,1,droid,legacy,legacy,0,I confirm that my participation has been explained and consent to taking part in the experiment,relative,1,undefined,undefined,1,0,1,0,84,84,0,0,0,84,0,0,0,0,0,0,NA,0,84,0,0,0,NA,84,526,41,04/09/2018 10:46,A template containing a practice and an experimental phase,96,no,800,1280,15.72330189,yes,Exp_10_working.osexp,C:\Users\russe\Dropbox,no,mono,no,32,no,#ffffff,no,I confirm that my participation has been explained and consent to taking part in the experiment,NA,1,yes,800,eb,droid,68,15,3,C:/Users/russe/Dropbox/Exp_10/New folder/subject-7.csv,droid,Jazzy James,3.1.7,0,3,NA,1,NA,1,1,NA,3,427,NA,103823,NA,541,826,NA,427,2,legacy,Female,1024,2,48000,-16,experiment,7,odd,droid,5318,NA,NA,156336,156767,10439,114806,NA,156337,123870,NA,NA,NA,NA,2378,NA,NA,156767,NA,114264,123043,NA,156338,Runtime for Android template,62,28140,69,0.08333,no,1280,0.061295432
90,90,22,407.2571429,407.2571429,#000000,no,1,droid,legacy,legacy,0,I confirm that my participation has been explained and consent to taking part in the experiment,relative,1,undefined,undefined,1,0,1,0,85,85,0,0,0,85,0,0,0,0,0,0,NA,0,85,0,0,0,NA,85,239,333,04/09/2018 10:46,A template containing a practice and an experimental phase,96,no,800,1280,15.72330189,yes,Exp_10_working.osexp,C:\Users\russe\Dropbox,no,mono,no,32,no,#ffffff,no,I confirm that my participation has been explained and consent to taking part in the experiment,NA,1,yes,800,be,droid,69,15,8,C:/Users/russe/Dropbox/Exp_10/New folder/subject-7.csv,droid,Jazzy James,3.1.7,0,8,NA,1,NA,1,1,NA,8,368,NA,103823,NA,541,826,NA,368,2,legacy,Female,1024,2,48000,-16,experiment,7,odd,droid,5318,NA,NA,156827,157200,10439,114806,NA,156829,123870,NA,NA,NA,NA,2378,NA,NA,157200,NA,114264,123043,NA,156829,Runtime for Android template,63,28508,70,0.125,no,1280,-0.655782197
90.14084507,90.14084507,22,407.8028169,407.8028169,#000000,no,1,droid,legacy,legacy,0,I confirm that my participation has been explained and consent to taking part in the experiment,relative,1,undefined,undefined,1,0,1,0,86,86,0,0,0,86,0,0,0,0,0,0,NA,0,86,0,0,0,NA,86,491,66,04/09/2018 10:46,A template containing a practice and an experimental phase,96,no,800,1280,15.72330189,yes,Exp_10_working.osexp,C:\Users\russe\Dropbox,no,mono,no,32,no,#ffffff,no,I confirm that my participation has been explained and consent to taking part in the experiment,NA,2,yes,800,bb,droid,70,15,3,C:/Users/russe/Dropbox/Exp_10/New folder/subject-7.csv,droid,Jazzy James,3.1.7,0,3,NA,1,NA,1,1,NA,3,446,NA,103823,NA,541,826,NA,446,2,legacy,Female,1024,2,48000,-16,experiment,7,odd,droid,5318,NA,NA,157262,157712,10439,114806,NA,157264,123870,NA,NA,NA,NA,2378,NA,NA,157712,NA,114264,123043,NA,157264,Runtime for Android template,64,28954,71,0.25,no,1280,0.292218736
90.27777778,90.27777778,22,409.0138889,409.0138889,#000000,no,1,droid,legacy,legacy,0,I confirm that my participation has been explained and consent to taking part in the experiment,relative,1,undefined,undefined,1,0,1,0,87,87,0,0,0,87,0,0,0,0,0,0,NA,0,87,0,0,0,NA,87,763,111,04/09/2018 10:46,A template containing a practice and an experimental phase,96,no,800,1280,15.72330189,yes,Exp_10_working.osexp,C:\Users\russe\Dropbox,no,mono,no,32,no,#ffffff,no,I confirm that my participation has been explained and consent to taking part in the experiment,NA,1,yes,800,bc,droid,71,15,4,C:/Users/russe/Dropbox/Exp_10/New folder/subject-7.csv,droid,Jazzy James,3.1.7,0,4,NA,1,NA,1,1,NA,4,495,NA,103823,NA,541,826,NA,495,2,legacy,Female,1024,2,48000,-16,experiment,7,odd,droid,5318,NA,NA,157772,158271,10439,114806,NA,157774,123870,NA,NA,NA,NA,2378,NA,NA,158271,NA,114264,123043,NA,157774,Runtime for Android template,65,29449,72,0.125,no,1280,0.887757783
89.04109589,89.04109589,22,405.9726027,405.9726027,#000000,no,1,droid,legacy,legacy,0,I confirm that my participation has been explained and consent to taking part in the experiment,relative,0,undefined,undefined,0,0,1,0,88,88,0,0,0,88,0,0,0,0,0,0,NA,0,88,0,0,0,NA,88,772,253,04/09/2018 10:46,A template containing a practice and an experimental phase,96,no,800,1280,15.72330189,yes,Exp_10_working.osexp,C:\Users\russe\Dropbox,no,mono,no,32,no,#ffffff,no,I confirm that my participation has been explained and consent to taking part in the experiment,NA,3,yes,800,co,droid,72,15,22,C:/Users/russe/Dropbox/Exp_10/New folder/subject-7.csv,droid,Jazzy James,3.1.7,0,10,NA,1,NA,1,1,NA,10,187,NA,103823,NA,541,826,NA,187,2,legacy,Female,1024,2,48000,-16,experiment,7,odd,droid,5318,NA,NA,158329,158519,10439,114806,NA,158330,123870,NA,NA,NA,NA,2378,NA,NA,158519,NA,114264,123043,NA,158330,Runtime for Android template,65,29636,73,0.3,no,1280,-2.855630515
89.18918919,89.18918919,22,411.5405405,411.5405405,#000000,no,1,droid,legacy,legacy,0,I confirm that my participation has been explained and consent to taking part in the experiment,relative,1,undefined,undefined,1,0,1,0,89,89,0,0,0,89,0,0,0,0,0,0,NA,0,89,0,0,0,NA,89,340,71,04/09/2018 10:46,A template containing a practice and an experimental phase,96,no,800,1280,15.72330189,yes,Exp_10_working.osexp,C:\Users\russe\Dropbox,no,mono,no,32,no,#ffffff,no,I confirm that my participation has been explained and consent to taking part in the experiment,NA,4,yes,800,oa,droid,73,15,2,C:/Users/russe/Dropbox/Exp_10/New folder/subject-7.csv,droid,Jazzy James,3.1.7,0,2,NA,1,NA,1,1,NA,2,818,NA,103823,NA,541,826,NA,818,2,legacy,Female,1024,2,48000,-16,experiment,7,odd,droid,5318,NA,NA,158578,159399,10439,114806,NA,158579,123870,NA,NA,NA,NA,2378,NA,NA,159399,NA,114264,123043,NA,158579,Runtime for Android template,66,30454,74,0.25,no,1280,4.813453953
89.33333333,89.33333333,22,416.0533333,416.0533333,#000000,no,1,droid,legacy,legacy,0,I confirm that my participation has been explained and consent to taking part in the experiment,relative,1,undefined,undefined,1,0,1,0,90,90,0,0,0,90,0,0,0,0,0,0,NA,0,90,0,0,0,NA,90,793,729,04/09/2018 10:46,A template containing a practice and an experimental phase,96,no,800,1280,15.72330189,yes,Exp_10_working.osexp,C:\Users\russe\Dropbox,no,mono,no,32,no,#ffffff,no,I confirm that my participation has been explained and consent to taking part in the experiment,NA,2,yes,800,ao,droid,74,15,22,C:/Users/russe/Dropbox/Exp_10/New folder/subject-7.csv,droid,Jazzy James,3.1.7,0,22,NA,1,NA,1,1,NA,22,750,NA,103823,NA,541,826,NA,750,2,legacy,Female,1024,2,48000,-16,experiment,7,odd,droid,5318,NA,NA,159454,160207,10439,114806,NA,159455,123870,NA,NA,NA,NA,2378,NA,NA,160207,NA,114264,123043,NA,159455,Runtime for Android template,67,31204,75,0.33333,no,1280,3.986991601
89.47368421,89.47368421,22,416.3157895,416.3157895,#000000,no,1,droid,legacy,legacy,0,I confirm that my participation has been explained and consent to taking part in the experiment,relative,1,undefined,undefined,1,0,1,0,91,91,0,0,0,91,0,0,0,0,0,0,NA,0,91,0,0,0,NA,91,742,143,04/09/2018 10:46,A template containing a practice and an experimental phase,96,no,800,1280,15.72330189,yes,Exp_10_working.osexp,C:\Users\russe\Dropbox,no,mono,no,32,no,#ffffff,no,I confirm that my participation has been explained and consent to taking part in the experiment,NA,2,yes,800,oc,droid,75,15,4,C:/Users/russe/Dropbox/Exp_10/New folder/subject-7.csv,droid,Jazzy James,3.1.7,0,4,NA,1,NA,1,1,NA,4,436,NA,103823,NA,541,826,NA,436,2,legacy,Female,1024,2,48000,-16,experiment,7,odd,droid,5318,NA,NA,160255,160695,10439,114806,NA,160257,123870,NA,NA,NA,NA,2378,NA,NA,160695,NA,114264,123043,NA,160257,Runtime for Android template,68,31640,76,0.125,no,1280,0.170680155
89.61038961,89.61038961,22,416.2207792,416.2207792,#000000,no,1,droid,legacy,legacy,0,I confirm that my participation has been explained and consent to taking part in the experiment,relative,1,undefined,undefined,1,0,1,0,92,92,0,0,0,92,0,0,0,0,0,0,NA,0,92,0,0,0,NA,92,765,529,04/09/2018 10:46,A template containing a practice and an experimental phase,96,no,800,1280,15.72330189,yes,Exp_10_working.osexp,C:\Users\russe\Dropbox,no,mono,no,32,no,#ffffff,no,I confirm that my participation has been explained and consent to taking part in the experiment,NA,1,yes,800,ck,droid,76,15,16,C:/Users/russe/Dropbox/Exp_10/New folder/subject-7.csv,droid,Jazzy James,3.1.7,0,16,NA,1,NA,1,1,NA,16,409,NA,103823,NA,541,826,NA,409,2,legacy,Female,1024,2,48000,-16,experiment,7,odd,droid,5318,NA,NA,160754,161167,10439,114806,NA,160756,123870,NA,NA,NA,NA,2378,NA,NA,161167,NA,114264,123043,NA,160756,Runtime for Android template,69,32049,77,0.1,no,1280,-0.157474014
89.74358974,89.74358974,22,415.6025641,415.6025641,#000000,no,1,droid,legacy,legacy,0,I confirm that my participation has been explained and consent to taking part in the experiment,relative,1,undefined,undefined,1,0,1,0,93,93,0,0,0,93,0,0,0,0,0,0,NA,0,93,0,0,0,NA,93,787,281,04/09/2018 10:46,A template containing a practice and an experimental phase,96,no,800,1280,15.72330189,yes,Exp_10_working.osexp,C:\Users\russe\Dropbox,no,mono,no,32,no,#ffffff,no,I confirm that my participation has been explained and consent to taking part in the experiment,NA,1,yes,800,kg,droid,77,15,10,C:/Users/russe/Dropbox/Exp_10/New folder/subject-7.csv,droid,Jazzy James,3.1.7,0,10,NA,1,NA,1,1,NA,10,368,NA,103823,NA,541,826,NA,368,2,legacy,Female,1024,2,48000,-16,experiment,7,odd,droid,5318,NA,NA,161228,161600,10439,114806,NA,161229,123870,NA,NA,NA,NA,2378,NA,NA,161600,NA,114264,123043,NA,161229,Runtime for Android template,70,32417,78,0.125,no,1280,-0.655782197
89.87341772,89.87341772,22,415.5189873,415.5189873,#000000,no,1,droid,legacy,legacy,0,I confirm that my participation has been explained and consent to taking part in the experiment,relative,1,undefined,undefined,1,0,1,0,94,94,0,0,0,94,0,0,0,0,0,0,NA,0,94,0,0,0,NA,94,584,637,04/09/2018 10:46,A template containing a practice and an experimental phase,96,no,800,1280,15.72330189,yes,Exp_10_working.osexp,C:\Users\russe\Dropbox,no,mono,no,32,no,#ffffff,no,I confirm that my participation has been explained and consent to taking part in the experiment,NA,1,yes,800,gn,droid,78,15,21,C:/Users/russe/Dropbox/Exp_10/New folder/subject-7.csv,droid,Jazzy James,3.1.7,0,21,NA,1,NA,1,1,NA,21,409,NA,103823,NA,541,826,NA,409,2,legacy,Female,1024,2,48000,-16,experiment,7,odd,droid,5318,NA,NA,161666,162080,10439,114806,NA,161668,123870,NA,NA,NA,NA,2378,NA,NA,162080,NA,114264,123043,NA,161668,Runtime for Android template,71,32826,79,0.2,no,1280,-0.157474014
90,90,22,415.6375,415.6375,#000000,no,1,droid,legacy,legacy,0,I confirm that my participation has been explained and consent to taking part in the experiment,relative,1,undefined,undefined,1,0,1,0,95,95,0,0,0,95,0,0,0,0,0,0,NA,0,95,0,0,0,NA,95,891,328,04/09/2018 10:46,A template containing a practice and an experimental phase,96,no,800,1280,15.72330189,yes,Exp_10_working.osexp,C:\Users\russe\Dropbox,no,mono,no,32,no,#ffffff,no,I confirm that my participation has been explained and consent to taking part in the experiment,NA,4,yes,800,nh,droid,79,15,11,C:/Users/russe/Dropbox/Exp_10/New folder/subject-7.csv,droid,Jazzy James,3.1.7,0,11,NA,1,NA,1,1,NA,11,425,NA,103823,NA,541,826,NA,425,2,legacy,Female,1024,2,48000,-16,experiment,7,odd,droid,5318,NA,NA,162130,162559,10439,114806,NA,162132,123870,NA,NA,NA,NA,2378,NA,NA,162559,NA,114264,123043,NA,162132,Runtime for Android template,72,33251,80,0.8,no,1280,0.036987715
90.12345679,90.12345679,22,415.7530864,415.7530864,#000000,no,1,droid,legacy,legacy,0,I confirm that my participation has been explained and consent to taking part in the experiment,relative,1,undefined,undefined,1,0,1,0,96,96,0,0,0,96,0,0,0,0,0,0,NA,0,96,0,0,0,NA,96,918,350,04/09/2018 10:46,A template containing a practice and an experimental phase,96,no,800,1280,15.72330189,yes,Exp_10_working.osexp,C:\Users\russe\Dropbox,no,mono,no,32,no,#ffffff,no,I confirm that my participation has been explained and consent to taking part in the experiment,NA,1,yes,800,hn,droid,80,15,11,C:/Users/russe/Dropbox/Exp_10/New folder/subject-7.csv,droid,Jazzy James,3.1.7,0,11,NA,1,NA,1,1,NA,11,425,NA,103823,NA,541,826,NA,425,2,legacy,Female,1024,2,48000,-16,experiment,7,odd,droid,5318,NA,NA,162634,163063,10439,114806,NA,162636,123870,NA,NA,NA,NA,2378,NA,NA,163063,NA,114264,123043,NA,162636,Runtime for Android template,73,33676,81,0.07692,no,1280,0.036987715
90.24390244,90.24390244,22,415.8536585,415.8536585,#000000,no,1,droid,legacy,legacy,0,I confirm that my participation has been explained and consent to taking part in the experiment,relative,1,undefined,undefined,1,0,1,0,97,97,0,0,0,97,0,0,0,0,0,0,NA,0,97,0,0,0,NA,97,522,735,04/09/2018 10:46,A template containing a practice and an experimental phase,96,no,800,1280,15.72330189,yes,Exp_10_working.osexp,C:\Users\russe\Dropbox,no,mono,no,32,no,#ffffff,no,I confirm that my participation has been explained and consent to taking part in the experiment,NA,4,yes,800,nh,droid,81,15,21,C:/Users/russe/Dropbox/Exp_10/New folder/subject-7.csv,droid,Jazzy James,3.1.7,0,21,NA,1,NA,1,1,NA,21,424,NA,103823,NA,541,826,NA,424,2,legacy,Female,1024,2,48000,-16,experiment,7,odd,droid,5318,NA,NA,163124,163553,10439,114806,NA,163125,123870,NA,NA,NA,NA,2378,NA,NA,163553,NA,114264,123043,NA,163125,Runtime for Android template,74,34100,82,0.8,no,1280,0.024833857
89.15662651,89.15662651,22,415.6506024,415.6506024,#000000,no,1,droid,legacy,legacy,0,I confirm that my participation has been explained and consent to taking part in the experiment,relative,0,undefined,undefined,0,0,1,0,98,98,0,0,0,98,0,0,0,0,0,0,NA,0,98,0,0,0,NA,98,1078,720,04/09/2018 10:46,A template containing a practice and an experimental phase,96,no,800,1280,15.72330189,yes,Exp_10_working.osexp,C:\Users\russe\Dropbox,no,mono,no,32,no,#ffffff,no,I confirm that my participation has been explained and consent to taking part in the experiment,NA,1,yes,800,hp,droid,82,15,23,C:/Users/russe/Dropbox/Exp_10/New folder/subject-7.csv,droid,Jazzy James,3.1.7,0,24,NA,1,NA,1,1,NA,24,399,NA,103823,NA,541,826,NA,399,2,legacy,Female,1024,2,48000,-16,experiment,7,odd,droid,5318,NA,NA,163604,164007,10439,114806,NA,163606,123870,NA,NA,NA,NA,2378,NA,NA,164007,NA,114264,123043,NA,163606,Runtime for Android template,74,34499,83,0.07692,no,1280,-0.279012596
89.28571429,89.28571429,22,416.0595238,416.0595238,#000000,no,1,droid,legacy,legacy,0,I confirm that my participation has been explained and consent to taking part in the experiment,relative,1,undefined,undefined,1,0,1,0,99,99,0,0,0,99,0,0,0,0,0,0,NA,0,99,0,0,0,NA,99,389,665,04/09/2018 10:46,A template containing a practice and an experimental phase,96,no,800,1280,15.72330189,yes,Exp_10_working.osexp,C:\Users\russe\Dropbox,no,mono,no,32,no,#ffffff,no,I confirm that my participation has been explained and consent to taking part in the experiment,NA,1,yes,800,pm,droid,83,15,20,C:/Users/russe/Dropbox/Exp_10/New folder/subject-7.csv,droid,Jazzy James,3.1.7,0,20,NA,1,NA,1,1,NA,20,450,NA,103823,NA,541,826,NA,450,2,legacy,Female,1024,2,48000,-16,experiment,7,odd,droid,5318,NA,NA,164065,164520,10439,114806,NA,164067,123870,NA,NA,NA,NA,2378,NA,NA,164520,NA,114264,123043,NA,164067,Runtime for Android template,75,34949,84,0.2,no,1280,0.340834168
89.41176471,89.41176471,22,417.2,417.2,#000000,no,1,droid,legacy,legacy,0,I confirm that my participation has been explained and consent to taking part in the experiment,relative,1,undefined,undefined,1,0,1,0,100,100,0,0,0,100,0,0,0,0,0,0,NA,0,100,0,0,0,NA,100,1026,263,04/09/2018 10:46,A template containing a practice and an experimental phase,96,no,800,1280,15.72330189,yes,Exp_10_working.osexp,C:\Users\russe\Dropbox,no,mono,no,32,no,#ffffff,no,I confirm that my participation has been explained and consent to taking part in the experiment,NA,1,yes,800,mh,droid,84,15,11,C:/Users/russe/Dropbox/Exp_10/New folder/subject-7.csv,droid,Jazzy James,3.1.7,0,11,NA,1,NA,1,1,NA,11,513,NA,103823,NA,541,826,NA,513,2,legacy,Female,1024,2,48000,-16,experiment,7,odd,droid,5318,NA,NA,164571,165087,10439,114806,NA,164572,123870,NA,NA,NA,NA,2378,NA,NA,165087,NA,114264,123043,NA,164572,Runtime for Android template,76,35462,85,0.11111,no,1280,1.106527229
89.53488372,89.53488372,22,419.6860465,419.6860465,#000000,no,1,droid,legacy,legacy,0,I confirm that my participation has been explained and consent to taking part in the experiment,relative,1,undefined,undefined,1,0,1,0,101,101,0,0,0,101,0,0,0,0,0,0,NA,0,101,0,0,0,NA,101,547,535,04/09/2018 10:46,A template containing a practice and an experimental phase,96,no,800,1280,15.72330189,yes,Exp_10_working.osexp,C:\Users\russe\Dropbox,no,mono,no,32,no,#ffffff,no,I confirm that my participation has been explained and consent to taking part in the experiment,NA,2,yes,800,hj,droid,85,15,15,C:/Users/russe/Dropbox/Exp_10/New folder/subject-7.csv,droid,Jazzy James,3.1.7,0,15,NA,1,NA,1,1,NA,15,631,NA,103823,NA,541,826,NA,631,2,legacy,Female,1024,2,48000,-16,experiment,7,odd,droid,5318,NA,NA,165140,165775,10439,114806,NA,165142,123870,NA,NA,NA,NA,2378,NA,NA,165775,NA,114264,123043,NA,165142,Runtime for Android template,77,36093,86,0.15385,no,1280,2.540682486
89.65517241,89.65517241,22,419.3333333,419.3333333,#000000,no,1,droid,legacy,legacy,0,I confirm that my participation has been explained and consent to taking part in the experiment,relative,1,undefined,undefined,1,0,1,0,102,102,0,0,0,102,0,0,0,0,0,0,NA,0,102,0,0,0,NA,102,876,315,04/09/2018 10:46,A template containing a practice and an experimental phase,96,no,800,1280,15.72330189,yes,Exp_10_working.osexp,C:\Users\russe\Dropbox,no,mono,no,32,no,#ffffff,no,I confirm that my participation has been explained and consent to taking part in the experiment,NA,1,yes,800,jh,droid,86,15,11,C:/Users/russe/Dropbox/Exp_10/New folder/subject-7.csv,droid,Jazzy James,3.1.7,0,11,NA,1,NA,1,1,NA,11,389,NA,103823,NA,541,826,NA,389,2,legacy,Female,1024,2,48000,-16,experiment,7,odd,droid,5318,NA,NA,165830,166224,10439,114806,NA,165832,123870,NA,NA,NA,NA,2378,NA,NA,166224,NA,114264,123043,NA,165832,Runtime for Android template,78,36482,87,0.125,no,1280,-0.400551177
89.77272727,89.77272727,22,419.5227273,419.5227273,#000000,no,1,droid,legacy,legacy,0,I confirm that my participation has been explained and consent to taking part in the experiment,relative,1,undefined,undefined,1,0,1,0,103,103,0,0,0,103,0,0,0,0,0,0,NA,0,103,0,0,0,NA,103,793,228,04/09/2018 10:46,A template containing a practice and an experimental phase,96,no,800,1280,15.72330189,yes,Exp_10_working.osexp,C:\Users\russe\Dropbox,no,mono,no,32,no,#ffffff,no,I confirm that my participation has been explained and consent to taking part in the experiment,NA,2,yes,800,hg,droid,87,15,10,C:/Users/russe/Dropbox/Exp_10/New folder/subject-7.csv,droid,Jazzy James,3.1.7,0,10,NA,1,NA,1,1,NA,10,436,NA,103823,NA,541,826,NA,436,2,legacy,Female,1024,2,48000,-16,experiment,7,odd,droid,5318,NA,NA,166280,166720,10439,114806,NA,166281,123870,NA,NA,NA,NA,2378,NA,NA,166720,NA,114264,123043,NA,166281,Runtime for Android template,79,36918,88,0.15385,no,1280,0.170680155
