acc,accuracy,age,average_response_time,avg_rt,background,bidi,block,canvas_backend,clock_backend,color_backend,compensation,consent,coordinates,correct,correct_Instructions,correct_new_sketchpad,correct_new_touch_response_4,count_Age,count_Break,count_Consent,count_Experimental_sequence,count_ISI,count_Instructions,count_Prac_block,count_Sex,count_Test_pad,count_block_1,count_block_2,count_block_3,count_block_4,count_block_5,count_experiment,count_feedback,count_incongruent_block,count_logger,count_new_reset_feedback,count_new_sketchpad,count_new_sketchpad_1,count_new_sketchpad_3,count_new_touch_response_4,cursor_x,cursor_y,datetime,description,device_dpi,device_is_tablet,device_resolution_height,device_resolution_width,device_screen_diag,disable_garbage_collection,experiment_file,experiment_path,font_bold,font_family,font_italic,font_size,font_underline,foreground,form_clicks,form_response,form_var,freq,fullscreen,height,key,keyboard_backend,live_row,live_row_Prac_block,loc,logfile,mouse_backend,opensesame_codename,opensesame_version,repeat_cycle,response,response_Break,response_Instructions,response_feedback,response_new_sketchpad,response_new_sketchpad_1,response_new_sketchpad_3,response_new_touch_response_4,response_time,response_time_Break,response_time_Instructions,response_time_feedback,response_time_new_sketchpad,response_time_new_sketchpad_1,response_time_new_sketchpad_3,response_time_new_touch_response_4,round_decimals,sampler_backend,sex,sound_buf_size,sound_channels,sound_freq,sound_sample_size,start,subject_nr,subject_parity,synth_backend,time_Age,time_Break,time_Consent,time_Experimental_sequence,time_ISI,time_Instructions,time_Prac_block,time_Sex,time_Test_pad,time_block_1,time_block_2,time_block_3,time_block_4,time_block_5,time_experiment,time_feedback,time_incongruent_block,time_logger,time_new_reset_feedback,time_new_sketchpad,time_new_sketchpad_1,time_new_sketchpad_3,time_new_touch_response_4,title,total_correct,total_response_time,total_responses,tp,uniform_coordinates,width,z
100,100,20,674,674,#000000,no,NA,droid,legacy,legacy,0,I confirm that my participation has been explained and consent to taking part in the experiment,relative,1,undefined,undefined,1,0,1,0,0,0,0,0,0,0,0,0,0,0,0,0,NA,0,0,0,0,0,NA,0,559,101,04/03/2018 11:08,A template containing a practice and an experimental phase,96,no,800,1280,15.72330189,yes,Exp_10_working.osexp,C:\Users\russe\Dropbox,no,mono,no,32,no,#ffffff,no,I confirm that my participation has been explained and consent to taking part in the experiment,NA,NA,yes,800,NA,droid,0,0,3,C:/Users/russe/Dropbox/Exp_10/subject-2.csv,droid,Jazzy James,3.1.7,0,3,NA,1,NA,1,NA,NA,3,674,NA,2414,NA,558,NA,NA,674,2,legacy,Male,1024,2,48000,-16,experiment,2,even,droid,5018,NA,NA,16724,17400,13729,16704,NA,16725,NA,NA,NA,NA,NA,2377,NA,NA,17400,NA,16145,NA,NA,16725,Runtime for Android template,1,674,1,NA,no,1280,2.526442735
100,100,20,574.5,574.5,#000000,no,NA,droid,legacy,legacy,0,I confirm that my participation has been explained and consent to taking part in the experiment,relative,1,undefined,undefined,1,0,1,0,1,1,0,0,0,1,0,0,0,0,0,0,NA,0,1,0,0,0,NA,1,941,94,04/03/2018 11:08,A template containing a practice and an experimental phase,96,no,800,1280,15.72330189,yes,Exp_10_working.osexp,C:\Users\russe\Dropbox,no,mono,no,32,no,#ffffff,no,I confirm that my participation has been explained and consent to taking part in the experiment,NA,NA,yes,800,NA,droid,1,1,5,C:/Users/russe/Dropbox/Exp_10/subject-2.csv,droid,Jazzy James,3.1.7,0,5,NA,1,NA,1,NA,NA,5,475,NA,2414,NA,558,NA,NA,475,2,legacy,Male,1024,2,48000,-16,experiment,2,even,droid,5018,NA,NA,17497,17976,13729,16704,NA,17499,NA,NA,NA,NA,NA,2377,NA,NA,17976,NA,16145,NA,NA,17499,Runtime for Android template,2,1149,2,NA,no,1280,0.042188742
100,100,20,559.3333333,559.3333333,#000000,no,NA,droid,legacy,legacy,0,I confirm that my participation has been explained and consent to taking part in the experiment,relative,1,undefined,undefined,1,0,1,0,2,2,0,0,0,2,0,0,0,0,0,0,NA,0,2,0,0,0,NA,2,561,685,04/03/2018 11:08,A template containing a practice and an experimental phase,96,no,800,1280,15.72330189,yes,Exp_10_working.osexp,C:\Users\russe\Dropbox,no,mono,no,32,no,#ffffff,no,I confirm that my participation has been explained and consent to taking part in the experiment,NA,NA,yes,800,NA,droid,2,2,21,C:/Users/russe/Dropbox/Exp_10/subject-2.csv,droid,Jazzy James,3.1.7,0,21,NA,1,NA,1,NA,NA,21,529,NA,2414,NA,558,NA,NA,529,2,legacy,Male,1024,2,48000,-16,experiment,2,even,droid,5018,NA,NA,18060,18593,13729,16704,NA,18062,NA,NA,NA,NA,NA,2377,NA,NA,18593,NA,16145,NA,NA,18062,Runtime for Android template,3,1678,3,NA,no,1280,0.716307916
100,100,20,560.75,560.75,#000000,no,NA,droid,legacy,legacy,0,I confirm that my participation has been explained and consent to taking part in the experiment,relative,1,undefined,undefined,1,0,1,0,3,3,0,0,0,3,0,0,0,0,0,0,NA,0,3,0,0,0,NA,3,350,146,04/03/2018 11:08,A template containing a practice and an experimental phase,96,no,800,1280,15.72330189,yes,Exp_10_working.osexp,C:\Users\russe\Dropbox,no,mono,no,32,no,#ffffff,no,I confirm that my participation has been explained and consent to taking part in the experiment,NA,NA,yes,800,NA,droid,3,3,2,C:/Users/russe/Dropbox/Exp_10/subject-2.csv,droid,Jazzy James,3.1.7,0,2,NA,1,NA,1,NA,NA,2,565,NA,2414,NA,558,NA,NA,565,2,legacy,Male,1024,2,48000,-16,experiment,2,even,droid,5018,NA,NA,18665,19232,13729,16704,NA,18666,NA,NA,NA,NA,NA,2377,NA,NA,19232,NA,16145,NA,NA,18666,Runtime for Android template,4,2243,4,NA,no,1280,1.165720699
100,100,20,545.8,545.8,#000000,no,NA,droid,legacy,legacy,0,I confirm that my participation has been explained and consent to taking part in the experiment,relative,1,undefined,undefined,1,0,1,0,4,4,0,0,0,4,0,0,0,0,0,0,NA,0,4,0,0,0,NA,4,294,324,04/03/2018 11:08,A template containing a practice and an experimental phase,96,no,800,1280,15.72330189,yes,Exp_10_working.osexp,C:\Users\russe\Dropbox,no,mono,no,32,no,#ffffff,no,I confirm that my participation has been explained and consent to taking part in the experiment,NA,NA,yes,800,NA,droid,4,4,8,C:/Users/russe/Dropbox/Exp_10/subject-2.csv,droid,Jazzy James,3.1.7,0,8,NA,1,NA,1,NA,NA,8,486,NA,2414,NA,558,NA,NA,486,2,legacy,Male,1024,2,48000,-16,experiment,2,even,droid,5018,NA,NA,19312,19800,13729,16704,NA,19313,NA,NA,NA,NA,NA,2377,NA,NA,19800,NA,16145,NA,NA,19313,Runtime for Android template,5,2729,5,NA,no,1280,0.179509315
100,100,20,549.8333333,549.8333333,#000000,no,NA,droid,legacy,legacy,0,I confirm that my participation has been explained and consent to taking part in the experiment,relative,1,undefined,undefined,1,0,1,0,5,5,0,0,0,5,0,0,0,0,0,0,NA,0,5,0,0,0,NA,5,1055,551,04/03/2018 11:08,A template containing a practice and an experimental phase,96,no,800,1280,15.72330189,yes,Exp_10_working.osexp,C:\Users\russe\Dropbox,no,mono,no,32,no,#ffffff,no,I confirm that my participation has been explained and consent to taking part in the experiment,NA,NA,yes,800,NA,droid,5,5,17,C:/Users/russe/Dropbox/Exp_10/subject-2.csv,droid,Jazzy James,3.1.7,0,17,NA,1,NA,1,NA,NA,17,570,NA,2414,NA,558,NA,NA,570,2,legacy,Male,1024,2,48000,-16,experiment,2,even,droid,5018,NA,NA,19891,20464,13729,16704,NA,19893,NA,NA,NA,NA,NA,2377,NA,NA,20464,NA,16145,NA,NA,19893,Runtime for Android template,6,3299,6,NA,no,1280,1.228139141
100,100,20,538.1428571,538.1428571,#000000,no,NA,droid,legacy,legacy,0,I confirm that my participation has been explained and consent to taking part in the experiment,relative,1,undefined,undefined,1,0,1,0,6,6,0,0,0,6,0,0,0,0,0,0,NA,0,6,0,0,0,NA,6,701,223,04/03/2018 11:08,A template containing a practice and an experimental phase,96,no,800,1280,15.72330189,yes,Exp_10_working.osexp,C:\Users\russe\Dropbox,no,mono,no,32,no,#ffffff,no,I confirm that my participation has been explained and consent to taking part in the experiment,NA,NA,yes,800,NA,droid,6,6,10,C:/Users/russe/Dropbox/Exp_10/subject-2.csv,droid,Jazzy James,3.1.7,0,10,NA,1,NA,1,NA,NA,10,468,NA,2414,NA,558,NA,NA,468,2,legacy,Male,1024,2,48000,-16,experiment,2,even,droid,5018,NA,NA,20569,21040,13729,16704,NA,20570,NA,NA,NA,NA,NA,2377,NA,NA,21040,NA,16145,NA,NA,20571,Runtime for Android template,7,3767,7,NA,no,1280,-0.045197077
100,100,20,523.375,523.375,#000000,no,NA,droid,legacy,legacy,0,I confirm that my participation has been explained and consent to taking part in the experiment,relative,1,undefined,undefined,1,0,1,0,7,7,0,0,0,7,0,0,0,0,0,0,NA,0,7,0,0,0,NA,7,732,519,04/03/2018 11:08,A template containing a practice and an experimental phase,96,no,800,1280,15.72330189,yes,Exp_10_working.osexp,C:\Users\russe\Dropbox,no,mono,no,32,no,#ffffff,no,I confirm that my participation has been explained and consent to taking part in the experiment,NA,NA,yes,800,NA,droid,7,7,16,C:/Users/russe/Dropbox/Exp_10/subject-2.csv,droid,Jazzy James,3.1.7,0,16,NA,1,NA,1,NA,NA,16,420,NA,2414,NA,558,NA,NA,420,2,legacy,Male,1024,2,48000,-16,experiment,2,even,droid,5018,NA,NA,21121,21545,13729,16704,NA,21122,NA,NA,NA,NA,NA,2377,NA,NA,21545,NA,16145,NA,NA,21123,Runtime for Android template,8,4187,8,NA,no,1280,-0.64441412
100,100,20,514.4444444,514.4444444,#000000,no,NA,droid,legacy,legacy,0,I confirm that my participation has been explained and consent to taking part in the experiment,relative,1,undefined,undefined,1,0,1,0,8,8,0,0,0,8,0,0,0,0,0,0,NA,0,8,0,0,0,NA,8,480,294,04/03/2018 11:08,A template containing a practice and an experimental phase,96,no,800,1280,15.72330189,yes,Exp_10_working.osexp,C:\Users\russe\Dropbox,no,mono,no,32,no,#ffffff,no,I confirm that my participation has been explained and consent to taking part in the experiment,NA,NA,yes,800,NA,droid,8,8,9,C:/Users/russe/Dropbox/Exp_10/subject-2.csv,droid,Jazzy James,3.1.7,0,9,NA,1,NA,1,NA,NA,9,443,NA,2414,NA,558,NA,NA,443,2,legacy,Male,1024,2,48000,-16,experiment,2,even,droid,5018,NA,NA,21618,22064,13729,16704,NA,21620,NA,NA,NA,NA,NA,2377,NA,NA,22064,NA,16145,NA,NA,21620,Runtime for Android template,9,4630,9,NA,no,1280,-0.357289287
100,100,20,508.4,508.4,#000000,no,NA,droid,legacy,legacy,0,I confirm that my participation has been explained and consent to taking part in the experiment,relative,1,undefined,undefined,1,0,1,0,9,9,0,0,0,9,0,0,0,0,0,0,NA,0,9,0,0,0,NA,9,978,302,04/03/2018 11:08,A template containing a practice and an experimental phase,96,no,800,1280,15.72330189,yes,Exp_10_working.osexp,C:\Users\russe\Dropbox,no,mono,no,32,no,#ffffff,no,I confirm that my participation has been explained and consent to taking part in the experiment,NA,NA,yes,800,NA,droid,9,9,11,C:/Users/russe/Dropbox/Exp_10/subject-2.csv,droid,Jazzy James,3.1.7,0,11,NA,1,NA,1,NA,NA,11,454,NA,2414,NA,558,NA,NA,454,2,legacy,Male,1024,2,48000,-16,experiment,2,even,droid,5018,NA,NA,22272,22728,13729,16704,NA,22273,NA,NA,NA,NA,NA,2377,NA,NA,22728,NA,16145,NA,NA,22273,Runtime for Android template,10,5084,10,NA,no,1280,-0.219968714
100,100,20,510.2727273,510.2727273,#000000,no,NA,droid,legacy,legacy,0,I confirm that my participation has been explained and consent to taking part in the experiment,relative,1,undefined,undefined,1,0,1,0,10,10,0,0,0,10,0,0,0,0,0,0,NA,0,10,0,0,0,NA,10,753,726,04/03/2018 11:08,A template containing a practice and an experimental phase,96,no,800,1280,15.72330189,yes,Exp_10_working.osexp,C:\Users\russe\Dropbox,no,mono,no,32,no,#ffffff,no,I confirm that my participation has been explained and consent to taking part in the experiment,NA,NA,yes,800,NA,droid,10,10,22,C:/Users/russe/Dropbox/Exp_10/subject-2.csv,droid,Jazzy James,3.1.7,0,22,NA,1,NA,1,NA,NA,22,529,NA,2414,NA,558,NA,NA,529,2,legacy,Male,1024,2,48000,-16,experiment,2,even,droid,5018,NA,NA,22868,23401,13729,16704,NA,22869,NA,NA,NA,NA,NA,2377,NA,NA,23401,NA,16145,NA,NA,22870,Runtime for Android template,11,5613,11,NA,no,1280,0.716307916
100,100,20,513.75,513.75,#000000,no,NA,droid,legacy,legacy,0,I confirm that my participation has been explained and consent to taking part in the experiment,relative,1,undefined,undefined,1,0,1,0,11,11,0,0,0,11,0,0,0,0,0,0,NA,0,11,0,0,0,NA,11,949,711,04/03/2018 11:08,A template containing a practice and an experimental phase,96,no,800,1280,15.72330189,yes,Exp_10_working.osexp,C:\Users\russe\Dropbox,no,mono,no,32,no,#ffffff,no,I confirm that my participation has been explained and consent to taking part in the experiment,NA,NA,yes,800,NA,droid,11,11,23,C:/Users/russe/Dropbox/Exp_10/subject-2.csv,droid,Jazzy James,3.1.7,0,23,NA,1,NA,1,NA,NA,23,552,NA,2414,NA,558,NA,NA,552,2,legacy,Male,1024,2,48000,-16,experiment,2,even,droid,5018,NA,NA,23501,24056,13729,16704,NA,23503,NA,NA,NA,NA,NA,2377,NA,NA,24056,NA,16145,NA,NA,23503,Runtime for Android template,12,6165,12,NA,no,1280,1.003432749
100,100,20,514.9230769,514.9230769,#000000,no,NA,droid,legacy,legacy,0,I confirm that my participation has been explained and consent to taking part in the experiment,relative,1,undefined,undefined,1,0,1,0,12,12,0,0,0,12,0,0,0,0,0,0,NA,0,12,0,0,0,NA,12,714,128,04/03/2018 11:08,A template containing a practice and an experimental phase,96,no,800,1280,15.72330189,yes,Exp_10_working.osexp,C:\Users\russe\Dropbox,no,mono,no,32,no,#ffffff,no,I confirm that my participation has been explained and consent to taking part in the experiment,NA,NA,yes,800,NA,droid,12,12,4,C:/Users/russe/Dropbox/Exp_10/subject-2.csv,droid,Jazzy James,3.1.7,0,4,NA,1,NA,1,NA,NA,4,529,NA,2414,NA,558,NA,NA,529,2,legacy,Male,1024,2,48000,-16,experiment,2,even,droid,5018,NA,NA,24172,24704,13729,16704,NA,24174,NA,NA,NA,NA,NA,2377,NA,NA,24704,NA,16145,NA,NA,24174,Runtime for Android template,13,6694,13,NA,no,1280,0.716307916
100,100,20,513.5714286,513.5714286,#000000,no,NA,droid,legacy,legacy,0,I confirm that my participation has been explained and consent to taking part in the experiment,relative,1,undefined,undefined,1,0,1,0,13,13,0,0,0,13,0,0,0,0,0,0,NA,0,13,0,0,0,NA,13,564,464,04/03/2018 11:08,A template containing a practice and an experimental phase,96,no,800,1280,15.72330189,yes,Exp_10_working.osexp,C:\Users\russe\Dropbox,no,mono,no,32,no,#ffffff,no,I confirm that my participation has been explained and consent to taking part in the experiment,NA,NA,yes,800,NA,droid,13,13,15,C:/Users/russe/Dropbox/Exp_10/subject-2.csv,droid,Jazzy James,3.1.7,0,15,NA,1,NA,1,NA,NA,15,496,NA,2414,NA,558,NA,NA,496,2,legacy,Male,1024,2,48000,-16,experiment,2,even,droid,5018,NA,NA,24836,25336,13729,16704,NA,24838,NA,NA,NA,NA,NA,2377,NA,NA,25336,NA,16145,NA,NA,24838,Runtime for Android template,14,7190,14,NA,no,1280,0.304346199
93.33333333,93.33333333,20,514.4,514.4,#000000,no,NA,droid,legacy,legacy,0,I confirm that my participation has been explained and consent to taking part in the experiment,relative,0,undefined,undefined,0,0,1,0,14,14,0,0,0,14,0,0,0,0,0,0,NA,0,14,0,0,0,NA,14,433,446,04/03/2018 11:08,A template containing a practice and an experimental phase,96,no,800,1280,15.72330189,yes,Exp_10_working.osexp,C:\Users\russe\Dropbox,no,mono,no,32,no,#ffffff,no,I confirm that my participation has been explained and consent to taking part in the experiment,NA,NA,yes,800,NA,droid,14,14,14,C:/Users/russe/Dropbox/Exp_10/subject-2.csv,droid,Jazzy James,3.1.7,0,15,NA,1,NA,1,NA,NA,15,526,NA,2414,NA,558,NA,NA,526,2,legacy,Male,1024,2,48000,-16,experiment,2,even,droid,5018,NA,NA,25534,26064,13729,16704,NA,25536,NA,NA,NA,NA,NA,2377,NA,NA,26064,NA,16145,NA,NA,25536,Runtime for Android template,14,7716,15,NA,no,1280,0.678856851
93.75,93.75,20,521.5625,521.5625,#000000,no,NA,droid,legacy,legacy,0,I confirm that my participation has been explained and consent to taking part in the experiment,relative,1,undefined,undefined,1,0,1,0,15,15,0,0,0,15,0,0,0,0,0,0,NA,0,15,0,0,0,NA,15,328,686,04/03/2018 11:08,A template containing a practice and an experimental phase,96,no,800,1280,15.72330189,yes,Exp_10_working.osexp,C:\Users\russe\Dropbox,no,mono,no,32,no,#ffffff,no,I confirm that my participation has been explained and consent to taking part in the experiment,NA,NA,yes,800,NA,droid,15,15,20,C:/Users/russe/Dropbox/Exp_10/subject-2.csv,droid,Jazzy James,3.1.7,0,20,NA,1,NA,1,NA,NA,20,629,NA,2414,NA,558,NA,NA,629,2,legacy,Male,1024,2,48000,-16,experiment,2,even,droid,5018,NA,NA,26200,26832,13729,16704,NA,26202,NA,NA,NA,NA,NA,2377,NA,NA,26832,NA,16145,NA,NA,26202,Runtime for Android template,15,8345,16,NA,no,1280,1.964676757
100,100,20,685,685,#000000,no,1,droid,legacy,legacy,0,I confirm that my participation has been explained and consent to taking part in the experiment,relative,1,undefined,undefined,1,0,1,0,16,16,0,0,0,16,0,0,0,0,0,0,NA,0,16,0,0,0,NA,16,326,328,04/03/2018 11:08,A template containing a practice and an experimental phase,96,no,800,1280,15.72330189,yes,Exp_10_working.osexp,C:\Users\russe\Dropbox,no,mono,no,32,no,#ffffff,no,I confirm that my participation has been explained and consent to taking part in the experiment,NA,2,yes,800,oe,droid,0,15,8,C:/Users/russe/Dropbox/Exp_10/subject-2.csv,droid,Jazzy James,3.1.7,0,8,NA,1,NA,1,1,NA,8,685,NA,2414,NA,558,885,NA,685,2,legacy,Male,1024,2,48000,-16,experiment,2,even,droid,5018,NA,NA,27913,28601,13729,16704,NA,27914,27887,NA,NA,NA,NA,2377,NA,NA,28601,NA,16145,27002,NA,27914,Runtime for Android template,1,685,1,0.125,no,1280,2.663763308
100,100,20,586.5,586.5,#000000,no,1,droid,legacy,legacy,0,I confirm that my participation has been explained and consent to taking part in the experiment,relative,1,undefined,undefined,1,0,1,0,17,17,0,0,0,17,0,0,0,0,0,0,NA,0,17,0,0,0,NA,17,305,308,04/03/2018 11:08,A template containing a practice and an experimental phase,96,no,800,1280,15.72330189,yes,Exp_10_working.osexp,C:\Users\russe\Dropbox,no,mono,no,32,no,#ffffff,no,I confirm that my participation has been explained and consent to taking part in the experiment,NA,2,yes,800,ee,droid,1,15,8,C:/Users/russe/Dropbox/Exp_10/subject-2.csv,droid,Jazzy James,3.1.7,0,8,NA,1,NA,1,1,NA,8,488,NA,2414,NA,558,885,NA,488,2,legacy,Male,1024,2,48000,-16,experiment,2,even,droid,5018,NA,NA,28788,29280,13729,16704,NA,28790,27887,NA,NA,NA,NA,2377,NA,NA,29280,NA,16145,27002,NA,28790,Runtime for Android template,2,1173,2,0.16667,no,1280,0.204476691
66.66666667,66.66666667,20,539,539,#000000,no,1,droid,legacy,legacy,0,I confirm that my participation has been explained and consent to taking part in the experiment,relative,0,undefined,undefined,0,0,1,0,18,18,0,0,0,18,0,0,0,0,0,0,NA,0,18,0,0,0,NA,18,635,458,04/03/2018 11:08,A template containing a practice and an experimental phase,96,no,800,1280,15.72330189,yes,Exp_10_working.osexp,C:\Users\russe\Dropbox,no,mono,no,32,no,#ffffff,no,I confirm that my participation has been explained and consent to taking part in the experiment,NA,1,yes,800,ek,droid,2,15,16,C:/Users/russe/Dropbox/Exp_10/subject-2.csv,droid,Jazzy James,3.1.7,0,15,NA,1,NA,1,1,NA,15,444,NA,2414,NA,558,885,NA,444,2,legacy,Male,1024,2,48000,-16,experiment,2,even,droid,5018,NA,NA,29448,29896,13729,16704,NA,29450,27887,NA,NA,NA,NA,2377,NA,NA,29896,NA,16145,27002,NA,29450,Runtime for Android template,2,1617,3,0.08333,no,1280,-0.344805599
75,75,20,509.5,509.5,#000000,no,1,droid,legacy,legacy,0,I confirm that my participation has been explained and consent to taking part in the experiment,relative,1,undefined,undefined,1,0,1,0,19,19,0,0,0,19,0,0,0,0,0,0,NA,0,19,0,0,0,NA,19,698,45,04/03/2018 11:08,A template containing a practice and an experimental phase,96,no,800,1280,15.72330189,yes,Exp_10_working.osexp,C:\Users\russe\Dropbox,no,mono,no,32,no,#ffffff,no,I confirm that my participation has been explained and consent to taking part in the experiment,NA,1,yes,800,kc,droid,3,15,4,C:/Users/russe/Dropbox/Exp_10/subject-2.csv,droid,Jazzy James,3.1.7,0,4,NA,1,NA,1,1,NA,4,421,NA,2414,NA,558,885,NA,421,2,legacy,Male,1024,2,48000,-16,experiment,2,even,droid,5018,NA,NA,30048,30473,13729,16704,NA,30050,27887,NA,NA,NA,NA,2377,NA,NA,30473,NA,16145,27002,NA,30050,Runtime for Android template,3,2038,4,0.125,no,1280,-0.631930432
80,80,20,485.4,485.4,#000000,no,1,droid,legacy,legacy,0,I confirm that my participation has been explained and consent to taking part in the experiment,relative,1,undefined,undefined,1,0,1,0,20,20,0,0,0,20,0,0,0,0,0,0,NA,0,20,0,0,0,NA,20,989,491,04/03/2018 11:08,A template containing a practice and an experimental phase,96,no,800,1280,15.72330189,yes,Exp_10_working.osexp,C:\Users\russe\Dropbox,no,mono,no,32,no,#ffffff,no,I confirm that my participation has been explained and consent to taking part in the experiment,NA,1,yes,800,cl,droid,4,15,17,C:/Users/russe/Dropbox/Exp_10/subject-2.csv,droid,Jazzy James,3.1.7,0,17,NA,1,NA,1,1,NA,17,389,NA,2414,NA,558,885,NA,389,2,legacy,Male,1024,2,48000,-16,experiment,2,even,droid,5018,NA,NA,30960,31352,13729,16704,NA,30962,27887,NA,NA,NA,NA,2377,NA,NA,31352,NA,16145,27002,NA,30962,Runtime for Android template,4,2427,5,0.1,no,1280,-1.031408461
66.66666667,66.66666667,20,500,500,#000000,no,1,droid,legacy,legacy,0,I confirm that my participation has been explained and consent to taking part in the experiment,relative,0,undefined,undefined,0,0,1,0,21,21,0,0,0,21,0,0,0,0,0,0,NA,0,21,0,0,0,NA,21,443,646,04/03/2018 11:08,A template containing a practice and an experimental phase,96,no,800,1280,15.72330189,yes,Exp_10_working.osexp,C:\Users\russe\Dropbox,no,mono,no,32,no,#ffffff,no,I confirm that my participation has been explained and consent to taking part in the experiment,NA,1,yes,800,lm,droid,5,15,20,C:/Users/russe/Dropbox/Exp_10/subject-2.csv,droid,Jazzy James,3.1.7,0,21,NA,1,NA,1,1,NA,21,573,NA,2414,NA,558,885,NA,573,2,legacy,Male,1024,2,48000,-16,experiment,2,even,droid,5018,NA,NA,31544,32121,13729,16704,NA,31546,27887,NA,NA,NA,NA,2377,NA,NA,32121,NA,16145,27002,NA,31546,Runtime for Android template,4,3000,6,0.25,no,1280,1.265590206
71.42857143,71.42857143,20,502.4285714,502.4285714,#000000,no,1,droid,legacy,legacy,0,I confirm that my participation has been explained and consent to taking part in the experiment,relative,1,undefined,undefined,1,0,1,0,22,22,0,0,0,22,0,0,0,0,0,0,NA,0,22,0,0,0,NA,22,349,233,04/03/2018 11:08,A template containing a practice and an experimental phase,96,no,800,1280,15.72330189,yes,Exp_10_working.osexp,C:\Users\russe\Dropbox,no,mono,no,32,no,#ffffff,no,I confirm that my participation has been explained and consent to taking part in the experiment,NA,2,yes,800,me,droid,6,15,8,C:/Users/russe/Dropbox/Exp_10/subject-2.csv,droid,Jazzy James,3.1.7,0,8,NA,1,NA,1,1,NA,8,517,NA,2414,NA,558,885,NA,517,2,legacy,Male,1024,2,48000,-16,experiment,2,even,droid,5018,NA,NA,32193,32713,13729,16704,NA,32194,27887,NA,NA,NA,NA,2377,NA,NA,32713,NA,16145,27002,NA,32194,Runtime for Android template,5,3517,7,0.22222,no,1280,0.566503655
62.5,62.5,20,500.75,500.75,#000000,no,1,droid,legacy,legacy,0,I confirm that my participation has been explained and consent to taking part in the experiment,relative,0,undefined,undefined,0,0,1,0,23,23,0,0,0,23,0,0,0,0,0,0,NA,0,23,0,0,0,NA,23,374,200,04/03/2018 11:08,A template containing a practice and an experimental phase,96,no,800,1280,15.72330189,yes,Exp_10_working.osexp,C:\Users\russe\Dropbox,no,mono,no,32,no,#ffffff,no,I confirm that my participation has been explained and consent to taking part in the experiment,NA,1,yes,800,ea,droid,7,15,2,C:/Users/russe/Dropbox/Exp_10/subject-2.csv,droid,Jazzy James,3.1.7,0,8,NA,1,NA,1,1,NA,8,489,NA,2414,NA,558,885,NA,489,2,legacy,Male,1024,2,48000,-16,experiment,2,even,droid,5018,NA,NA,32781,33272,13729,16704,NA,32782,27887,NA,NA,NA,NA,2377,NA,NA,33272,NA,16145,27002,NA,32782,Runtime for Android template,5,4006,8,0.08333,no,1280,0.21696038
66.66666667,66.66666667,20,506.1111111,506.1111111,#000000,no,1,droid,legacy,legacy,0,I confirm that my participation has been explained and consent to taking part in the experiment,relative,1,undefined,undefined,1,0,1,0,24,24,0,0,0,24,0,0,0,0,0,0,NA,0,24,0,0,0,NA,24,808,712,04/03/2018 11:08,A template containing a practice and an experimental phase,96,no,800,1280,15.72330189,yes,Exp_10_working.osexp,C:\Users\russe\Dropbox,no,mono,no,32,no,#ffffff,no,I confirm that my participation has been explained and consent to taking part in the experiment,NA,2,yes,800,ao,droid,8,15,22,C:/Users/russe/Dropbox/Exp_10/subject-2.csv,droid,Jazzy James,3.1.7,0,22,NA,1,NA,1,1,NA,22,549,NA,2414,NA,558,885,NA,549,2,legacy,Male,1024,2,48000,-16,experiment,2,even,droid,5018,NA,NA,33368,33920,13729,16704,NA,33370,27887,NA,NA,NA,NA,2377,NA,NA,33920,NA,16145,27002,NA,33370,Runtime for Android template,6,4555,9,0.33333,no,1280,0.965981684
70,70,20,501.1,501.1,#000000,no,1,droid,legacy,legacy,0,I confirm that my participation has been explained and consent to taking part in the experiment,relative,1,undefined,undefined,1,0,1,0,25,25,0,0,0,25,0,0,0,0,0,0,NA,0,25,0,0,0,NA,25,573,570,04/03/2018 11:08,A template containing a practice and an experimental phase,96,no,800,1280,15.72330189,yes,Exp_10_working.osexp,C:\Users\russe\Dropbox,no,mono,no,32,no,#ffffff,no,I confirm that my participation has been explained and consent to taking part in the experiment,NA,1,yes,800,oj,droid,9,15,15,C:/Users/russe/Dropbox/Exp_10/subject-2.csv,droid,Jazzy James,3.1.7,0,15,NA,1,NA,1,1,NA,15,456,NA,2414,NA,558,885,NA,456,2,legacy,Male,1024,2,48000,-16,experiment,2,even,droid,5018,NA,NA,33998,34457,13729,16704,NA,33999,27887,NA,NA,NA,NA,2377,NA,NA,34457,NA,16145,27002,NA,33999,Runtime for Android template,7,5011,10,0.0625,no,1280,-0.195001338
72.72727273,72.72727273,20,498.3636364,498.3636364,#000000,no,1,droid,legacy,legacy,0,I confirm that my participation has been explained and consent to taking part in the experiment,relative,1,undefined,undefined,1,0,1,0,26,26,0,0,0,26,0,0,0,0,0,0,NA,0,26,0,0,0,NA,26,579,742,04/03/2018 11:08,A template containing a practice and an experimental phase,96,no,800,1280,15.72330189,yes,Exp_10_working.osexp,C:\Users\russe\Dropbox,no,mono,no,32,no,#ffffff,no,I confirm that my participation has been explained and consent to taking part in the experiment,NA,1,yes,800,jn,droid,10,15,21,C:/Users/russe/Dropbox/Exp_10/subject-2.csv,droid,Jazzy James,3.1.7,0,21,NA,1,NA,1,1,NA,21,471,NA,2414,NA,558,885,NA,471,2,legacy,Male,1024,2,48000,-16,experiment,2,even,droid,5018,NA,NA,34543,35016,13729,16704,NA,34544,27887,NA,NA,NA,NA,2377,NA,NA,35016,NA,16145,27002,NA,34544,Runtime for Android template,8,5482,11,0.125,no,1280,-0.007746012
75,75,20,497.25,497.25,#000000,no,1,droid,legacy,legacy,0,I confirm that my participation has been explained and consent to taking part in the experiment,relative,1,undefined,undefined,1,0,1,0,27,27,0,0,0,27,0,0,0,0,0,0,NA,0,27,0,0,0,NA,27,1013,295,04/03/2018 11:08,A template containing a practice and an experimental phase,96,no,800,1280,15.72330189,yes,Exp_10_working.osexp,C:\Users\russe\Dropbox,no,mono,no,32,no,#ffffff,no,I confirm that my participation has been explained and consent to taking part in the experiment,NA,4,yes,800,nh,droid,11,15,11,C:/Users/russe/Dropbox/Exp_10/subject-2.csv,droid,Jazzy James,3.1.7,0,11,NA,1,NA,1,1,NA,11,485,NA,2414,NA,558,885,NA,485,2,legacy,Male,1024,2,48000,-16,experiment,2,even,droid,5018,NA,NA,35120,35608,13729,16704,NA,35122,27887,NA,NA,NA,NA,2377,NA,NA,35608,NA,16145,27002,NA,35122,Runtime for Android template,9,5967,12,0.8,no,1280,0.167025626
76.92307692,76.92307692,20,504.3846154,504.3846154,#000000,no,1,droid,legacy,legacy,0,I confirm that my participation has been explained and consent to taking part in the experiment,relative,1,undefined,undefined,1,0,1,0,28,28,0,0,0,28,0,0,0,0,0,0,NA,0,28,0,0,0,NA,28,335,487,04/03/2018 11:08,A template containing a practice and an experimental phase,96,no,800,1280,15.72330189,yes,Exp_10_working.osexp,C:\Users\russe\Dropbox,no,mono,no,32,no,#ffffff,no,I confirm that my participation has been explained and consent to taking part in the experiment,NA,1,yes,800,hi,droid,12,15,14,C:/Users/russe/Dropbox/Exp_10/subject-2.csv,droid,Jazzy James,3.1.7,0,14,NA,1,NA,1,1,NA,14,590,NA,2414,NA,558,885,NA,590,2,legacy,Male,1024,2,48000,-16,experiment,2,even,droid,5018,NA,NA,35751,36344,13729,16704,NA,35753,27887,NA,NA,NA,NA,2377,NA,NA,36344,NA,16145,27002,NA,35753,Runtime for Android template,10,6557,13,0.07692,no,1280,1.477812909
78.57142857,78.57142857,20,506.3571429,506.3571429,#000000,no,1,droid,legacy,legacy,0,I confirm that my participation has been explained and consent to taking part in the experiment,relative,1,undefined,undefined,1,0,1,0,29,29,0,0,0,29,0,0,0,0,0,0,NA,0,29,0,0,0,NA,29,712,125,04/03/2018 11:08,A template containing a practice and an experimental phase,96,no,800,1280,15.72330189,yes,Exp_10_working.osexp,C:\Users\russe\Dropbox,no,mono,no,32,no,#ffffff,no,I confirm that my participation has been explained and consent to taking part in the experiment,NA,1,yes,800,ic,droid,13,15,4,C:/Users/russe/Dropbox/Exp_10/subject-2.csv,droid,Jazzy James,3.1.7,0,4,NA,1,NA,1,1,NA,4,532,NA,2414,NA,558,885,NA,532,2,legacy,Male,1024,2,48000,-16,experiment,2,even,droid,5018,NA,NA,36920,37456,13729,16704,NA,36921,27887,NA,NA,NA,NA,2377,NA,NA,37456,NA,16145,27002,NA,36922,Runtime for Android template,11,7089,14,1,no,1280,0.753758981
80,80,20,498.6,498.6,#000000,no,1,droid,legacy,legacy,0,I confirm that my participation has been explained and consent to taking part in the experiment,relative,1,undefined,undefined,1,0,1,0,30,30,0,0,0,30,0,0,0,0,0,0,NA,0,30,0,0,0,NA,30,747,300,04/03/2018 11:08,A template containing a practice and an experimental phase,96,no,800,1280,15.72330189,yes,Exp_10_working.osexp,C:\Users\russe\Dropbox,no,mono,no,32,no,#ffffff,no,I confirm that my participation has been explained and consent to taking part in the experiment,NA,1,yes,800,cg,droid,14,15,10,C:/Users/russe/Dropbox/Exp_10/subject-2.csv,droid,Jazzy James,3.1.7,0,10,NA,1,NA,1,1,NA,10,390,NA,2414,NA,558,885,NA,390,2,legacy,Male,1024,2,48000,-16,experiment,2,even,droid,5018,NA,NA,37583,37976,13729,16704,NA,37585,27887,NA,NA,NA,NA,2377,NA,NA,37976,NA,16145,27002,NA,37585,Runtime for Android template,12,7479,15,0.1,no,1280,-1.018924773
81.25,81.25,20,494.3125,494.3125,#000000,no,1,droid,legacy,legacy,0,I confirm that my participation has been explained and consent to taking part in the experiment,relative,1,undefined,undefined,1,0,1,0,31,31,0,0,0,31,0,0,0,0,0,0,NA,0,31,0,0,0,NA,31,959,549,04/03/2018 11:08,A template containing a practice and an experimental phase,96,no,800,1280,15.72330189,yes,Exp_10_working.osexp,C:\Users\russe\Dropbox,no,mono,no,32,no,#ffffff,no,I confirm that my participation has been explained and consent to taking part in the experiment,NA,1,yes,800,gl,droid,15,15,17,C:/Users/russe/Dropbox/Exp_10/subject-2.csv,droid,Jazzy James,3.1.7,0,17,NA,1,NA,1,1,NA,17,430,NA,2414,NA,558,885,NA,430,2,legacy,Male,1024,2,48000,-16,experiment,2,even,droid,5018,NA,NA,38103,38537,13729,16704,NA,38105,27887,NA,NA,NA,NA,2377,NA,NA,38537,NA,16145,27002,NA,38105,Runtime for Android template,13,7909,16,0.2,no,1280,-0.519577236
82.35294118,82.35294118,20,497.2352941,497.2352941,#000000,no,1,droid,legacy,legacy,0,I confirm that my participation has been explained and consent to taking part in the experiment,relative,1,undefined,undefined,1,0,1,0,32,32,0,0,0,32,0,0,0,0,0,0,NA,0,32,0,0,0,NA,32,728,112,04/03/2018 11:08,A template containing a practice and an experimental phase,96,no,800,1280,15.72330189,yes,Exp_10_working.osexp,C:\Users\russe\Dropbox,no,mono,no,32,no,#ffffff,no,I confirm that my participation has been explained and consent to taking part in the experiment,NA,1,yes,800,lc,droid,16,15,4,C:/Users/russe/Dropbox/Exp_10/subject-2.csv,droid,Jazzy James,3.1.7,0,4,NA,1,NA,1,1,NA,4,544,NA,2414,NA,558,885,NA,544,2,legacy,Male,1024,2,48000,-16,experiment,2,even,droid,5018,NA,NA,38685,39232,13729,16704,NA,38687,27887,NA,NA,NA,NA,2377,NA,NA,39232,NA,16145,27002,NA,38687,Runtime for Android template,14,8453,17,0.25,no,1280,0.903563242
83.33333333,83.33333333,20,501.7777778,501.7777778,#000000,no,1,droid,legacy,legacy,0,I confirm that my participation has been explained and consent to taking part in the experiment,relative,1,undefined,undefined,1,0,1,0,33,33,0,0,0,33,0,0,0,0,0,0,NA,0,33,0,0,0,NA,33,697,703,04/03/2018 11:08,A template containing a practice and an experimental phase,96,no,800,1280,15.72330189,yes,Exp_10_working.osexp,C:\Users\russe\Dropbox,no,mono,no,32,no,#ffffff,no,I confirm that my participation has been explained and consent to taking part in the experiment,NA,3,yes,800,co,droid,17,15,22,C:/Users/russe/Dropbox/Exp_10/subject-2.csv,droid,Jazzy James,3.1.7,0,22,NA,1,NA,1,1,NA,22,579,NA,2414,NA,558,885,NA,579,2,legacy,Male,1024,2,48000,-16,experiment,2,even,droid,5018,NA,NA,39378,39960,13729,16704,NA,39380,27887,NA,NA,NA,NA,2377,NA,NA,39960,NA,16145,27002,NA,39380,Runtime for Android template,15,9032,18,0.3,no,1280,1.340492336
84.21052632,84.21052632,20,499.1578947,499.1578947,#000000,no,1,droid,legacy,legacy,0,I confirm that my participation has been explained and consent to taking part in the experiment,relative,1,undefined,undefined,1,0,1,0,34,34,0,0,0,34,0,0,0,0,0,0,NA,0,34,0,0,0,NA,34,1031,285,04/03/2018 11:08,A template containing a practice and an experimental phase,96,no,800,1280,15.72330189,yes,Exp_10_working.osexp,C:\Users\russe\Dropbox,no,mono,no,32,no,#ffffff,no,I confirm that my participation has been explained and consent to taking part in the experiment,NA,1,yes,800,oh,droid,18,15,11,C:/Users/russe/Dropbox/Exp_10/subject-2.csv,droid,Jazzy James,3.1.7,0,11,NA,1,NA,1,1,NA,11,452,NA,2414,NA,558,885,NA,452,2,legacy,Male,1024,2,48000,-16,experiment,2,even,droid,5018,NA,NA,40061,40520,13729,16704,NA,40065,27887,NA,NA,NA,NA,2377,NA,NA,40520,NA,16145,27002,NA,40066,Runtime for Android template,16,9484,19,0.0625,no,1280,-0.244936091
85,85,20,497.3,497.3,#000000,no,1,droid,legacy,legacy,0,I confirm that my participation has been explained and consent to taking part in the experiment,relative,1,undefined,undefined,1,0,1,0,35,35,0,0,0,35,0,0,0,0,0,0,NA,0,35,0,0,0,NA,35,627,465,04/03/2018 11:08,A template containing a practice and an experimental phase,96,no,800,1280,15.72330189,yes,Exp_10_working.osexp,C:\Users\russe\Dropbox,no,mono,no,32,no,#ffffff,no,I confirm that my participation has been explained and consent to taking part in the experiment,NA,2,yes,800,hj,droid,19,15,15,C:/Users/russe/Dropbox/Exp_10/subject-2.csv,droid,Jazzy James,3.1.7,0,15,NA,1,NA,1,1,NA,15,462,NA,2414,NA,558,885,NA,462,2,legacy,Male,1024,2,48000,-16,experiment,2,even,droid,5018,NA,NA,40599,41065,13729,16704,NA,40601,27887,NA,NA,NA,NA,2377,NA,NA,41065,NA,16145,27002,NA,40601,Runtime for Android template,17,9946,20,0.15385,no,1280,-0.120099207
85.71428571,85.71428571,20,495.4285714,495.4285714,#000000,no,1,droid,legacy,legacy,0,I confirm that my participation has been explained and consent to taking part in the experiment,relative,1,undefined,undefined,1,0,1,0,36,36,0,0,0,36,0,0,0,0,0,0,NA,0,36,0,0,0,NA,36,801,616,04/03/2018 11:08,A template containing a practice and an experimental phase,96,no,800,1280,15.72330189,yes,Exp_10_working.osexp,C:\Users\russe\Dropbox,no,mono,no,32,no,#ffffff,no,I confirm that my participation has been explained and consent to taking part in the experiment,NA,2,yes,800,jo,droid,20,15,22,C:/Users/russe/Dropbox/Exp_10/subject-2.csv,droid,Jazzy James,3.1.7,0,22,NA,1,NA,1,1,NA,22,458,NA,2414,NA,558,885,NA,458,2,legacy,Male,1024,2,48000,-16,experiment,2,even,droid,5018,NA,NA,41179,41641,13729,16704,NA,41181,27887,NA,NA,NA,NA,2377,NA,NA,41641,NA,16145,27002,NA,41181,Runtime for Android template,18,10404,21,0.25,no,1280,-0.170033961
86.36363636,86.36363636,20,492.5909091,492.5909091,#000000,no,1,droid,legacy,legacy,0,I confirm that my participation has been explained and consent to taking part in the experiment,relative,1,undefined,undefined,1,0,1,0,37,37,0,0,0,37,0,0,0,0,0,0,NA,0,37,0,0,0,NA,37,331,249,04/03/2018 11:08,A template containing a practice and an experimental phase,96,no,800,1280,15.72330189,yes,Exp_10_working.osexp,C:\Users\russe\Dropbox,no,mono,no,32,no,#ffffff,no,I confirm that my participation has been explained and consent to taking part in the experiment,NA,2,yes,800,oe,droid,21,15,8,C:/Users/russe/Dropbox/Exp_10/subject-2.csv,droid,Jazzy James,3.1.7,0,8,NA,1,NA,1,1,NA,8,433,NA,2414,NA,558,885,NA,433,2,legacy,Male,1024,2,48000,-16,experiment,2,even,droid,5018,NA,NA,41811,42249,13729,16704,NA,41813,27887,NA,NA,NA,NA,2377,NA,NA,42249,NA,16145,27002,NA,41814,Runtime for Android template,19,10837,22,0.125,no,1280,-0.482126171
86.95652174,86.95652174,20,487.5217391,487.5217391,#000000,no,1,droid,legacy,legacy,0,I confirm that my participation has been explained and consent to taking part in the experiment,relative,1,undefined,undefined,1,0,1,0,38,38,0,0,0,38,0,0,0,0,0,0,NA,0,38,0,0,0,NA,38,593,299,04/03/2018 11:08,A template containing a practice and an experimental phase,96,no,800,1280,15.72330189,yes,Exp_10_working.osexp,C:\Users\russe\Dropbox,no,mono,no,32,no,#ffffff,no,I confirm that my participation has been explained and consent to taking part in the experiment,NA,1,yes,800,ef,droid,22,15,9,C:/Users/russe/Dropbox/Exp_10/subject-2.csv,droid,Jazzy James,3.1.7,0,9,NA,1,NA,1,1,NA,9,376,NA,2414,NA,558,885,NA,376,2,legacy,Male,1024,2,48000,-16,experiment,2,even,droid,5018,NA,NA,42380,42762,13729,16704,NA,42382,27887,NA,NA,NA,NA,2377,NA,NA,42762,NA,16145,27002,NA,42383,Runtime for Android template,20,11213,23,0.08333,no,1280,-1.19369641
87.5,87.5,20,487.4583333,487.4583333,#000000,no,1,droid,legacy,legacy,0,I confirm that my participation has been explained and consent to taking part in the experiment,relative,1,undefined,undefined,1,0,1,0,39,39,0,0,0,39,0,0,0,0,0,0,NA,0,39,0,0,0,NA,39,727,608,04/03/2018 11:08,A template containing a practice and an experimental phase,96,no,800,1280,15.72330189,yes,Exp_10_working.osexp,C:\Users\russe\Dropbox,no,mono,no,32,no,#ffffff,no,I confirm that my participation has been explained and consent to taking part in the experiment,NA,1,yes,800,fo,droid,23,15,22,C:/Users/russe/Dropbox/Exp_10/subject-2.csv,droid,Jazzy James,3.1.7,0,22,NA,1,NA,1,1,NA,22,486,NA,2414,NA,558,885,NA,486,2,legacy,Male,1024,2,48000,-16,experiment,2,even,droid,5018,NA,NA,42879,43368,13729,16704,NA,42880,27887,NA,NA,NA,NA,2377,NA,NA,43368,NA,16145,27002,NA,42881,Runtime for Android template,21,11699,24,0.33333,no,1280,0.179509315
88,88,20,487.2,487.2,#000000,no,1,droid,legacy,legacy,0,I confirm that my participation has been explained and consent to taking part in the experiment,relative,1,undefined,undefined,1,0,1,0,40,40,0,0,0,40,0,0,0,0,0,0,NA,0,40,0,0,0,NA,40,326,614,04/03/2018 11:08,A template containing a practice and an experimental phase,96,no,800,1280,15.72330189,yes,Exp_10_working.osexp,C:\Users\russe\Dropbox,no,mono,no,32,no,#ffffff,no,I confirm that my participation has been explained and consent to taking part in the experiment,NA,1,yes,800,om,droid,24,15,20,C:/Users/russe/Dropbox/Exp_10/subject-2.csv,droid,Jazzy James,3.1.7,0,20,NA,1,NA,1,1,NA,20,481,NA,2414,NA,558,885,NA,481,2,legacy,Male,1024,2,48000,-16,experiment,2,even,droid,5018,NA,NA,43501,43985,13729,16704,NA,43502,27887,NA,NA,NA,NA,2377,NA,NA,43985,NA,16145,27002,NA,43502,Runtime for Android template,22,12180,25,0.0625,no,1280,0.117090873
88.46153846,88.46153846,20,490.2307692,490.2307692,#000000,no,1,droid,legacy,legacy,0,I confirm that my participation has been explained and consent to taking part in the experiment,relative,1,undefined,undefined,1,0,1,0,41,41,0,0,0,41,0,0,0,0,0,0,NA,0,41,0,0,0,NA,41,522,115,04/03/2018 11:08,A template containing a practice and an experimental phase,96,no,800,1280,15.72330189,yes,Exp_10_working.osexp,C:\Users\russe\Dropbox,no,mono,no,32,no,#ffffff,no,I confirm that my participation has been explained and consent to taking part in the experiment,NA,1,yes,800,mb,droid,25,15,3,C:/Users/russe/Dropbox/Exp_10/subject-2.csv,droid,Jazzy James,3.1.7,0,3,NA,1,NA,1,1,NA,3,566,NA,2414,NA,558,885,NA,566,2,legacy,Male,1024,2,48000,-16,experiment,2,even,droid,5018,NA,NA,44055,44625,13729,16704,NA,44057,27887,NA,NA,NA,NA,2377,NA,NA,44625,NA,16145,27002,NA,44057,Runtime for Android template,23,12746,26,0.11111,no,1280,1.178204387
88.88888889,88.88888889,20,488.962963,488.962963,#000000,no,1,droid,legacy,legacy,0,I confirm that my participation has been explained and consent to taking part in the experiment,relative,1,undefined,undefined,1,0,1,0,42,42,0,0,0,42,0,0,0,0,0,0,NA,0,42,0,0,0,NA,42,1057,283,04/03/2018 11:08,A template containing a practice and an experimental phase,96,no,800,1280,15.72330189,yes,Exp_10_working.osexp,C:\Users\russe\Dropbox,no,mono,no,32,no,#ffffff,no,I confirm that my participation has been explained and consent to taking part in the experiment,NA,1,yes,800,bh,droid,26,15,11,C:/Users/russe/Dropbox/Exp_10/subject-2.csv,droid,Jazzy James,3.1.7,0,11,NA,1,NA,1,1,NA,11,456,NA,2414,NA,558,885,NA,456,2,legacy,Male,1024,2,48000,-16,experiment,2,even,droid,5018,NA,NA,44718,45176,13729,16704,NA,44719,27887,NA,NA,NA,NA,2377,NA,NA,45176,NA,16145,27002,NA,44719,Runtime for Android template,24,13202,27,0.125,no,1280,-0.195001338
89.28571429,89.28571429,20,489.5714286,489.5714286,#000000,no,1,droid,legacy,legacy,0,I confirm that my participation has been explained and consent to taking part in the experiment,relative,1,undefined,undefined,1,0,1,0,43,43,0,0,0,43,0,0,0,0,0,0,NA,0,43,0,0,0,NA,43,988,290,04/03/2018 11:08,A template containing a practice and an experimental phase,96,no,800,1280,15.72330189,yes,Exp_10_working.osexp,C:\Users\russe\Dropbox,no,mono,no,32,no,#ffffff,no,I confirm that my participation has been explained and consent to taking part in the experiment,NA,1,yes,800,hh,droid,27,15,11,C:/Users/russe/Dropbox/Exp_10/subject-2.csv,droid,Jazzy James,3.1.7,0,11,NA,1,NA,1,1,NA,11,506,NA,2414,NA,558,885,NA,506,2,legacy,Male,1024,2,48000,-16,experiment,2,even,droid,5018,NA,NA,45243,45752,13729,16704,NA,45245,27887,NA,NA,NA,NA,2377,NA,NA,45752,NA,16145,27002,NA,45245,Runtime for Android template,25,13708,28,0.07692,no,1280,0.429183083
89.65517241,89.65517241,20,492.6551724,492.6551724,#000000,no,1,droid,legacy,legacy,0,I confirm that my participation has been explained and consent to taking part in the experiment,relative,1,undefined,undefined,1,0,1,0,44,44,0,0,0,44,0,0,0,0,0,0,NA,0,44,0,0,0,NA,44,717,30,04/03/2018 11:08,A template containing a practice and an experimental phase,96,no,800,1280,15.72330189,yes,Exp_10_working.osexp,C:\Users\russe\Dropbox,no,mono,no,32,no,#ffffff,no,I confirm that my participation has been explained and consent to taking part in the experiment,NA,1,yes,800,hc,droid,28,15,4,C:/Users/russe/Dropbox/Exp_10/subject-2.csv,droid,Jazzy James,3.1.7,0,4,NA,1,NA,1,1,NA,4,579,NA,2414,NA,558,885,NA,579,2,legacy,Male,1024,2,48000,-16,experiment,2,even,droid,5018,NA,NA,45970,46561,13729,16704,NA,45979,27887,NA,NA,NA,NA,2377,NA,NA,46561,NA,16145,27002,NA,45980,Runtime for Android template,26,14287,29,0.07692,no,1280,1.340492336
90,90,20,493.5333333,493.5333333,#000000,no,1,droid,legacy,legacy,0,I confirm that my participation has been explained and consent to taking part in the experiment,relative,1,undefined,undefined,1,0,1,0,45,45,0,0,0,45,0,0,0,0,0,0,NA,0,45,0,0,0,NA,45,330,272,04/03/2018 11:08,A template containing a practice and an experimental phase,96,no,800,1280,15.72330189,yes,Exp_10_working.osexp,C:\Users\russe\Dropbox,no,mono,no,32,no,#ffffff,no,I confirm that my participation has been explained and consent to taking part in the experiment,NA,1,yes,800,ce,droid,29,15,8,C:/Users/russe/Dropbox/Exp_10/subject-2.csv,droid,Jazzy James,3.1.7,0,8,NA,1,NA,1,1,NA,8,519,NA,2414,NA,558,885,NA,519,2,legacy,Male,1024,2,48000,-16,experiment,2,even,droid,5018,NA,NA,46639,47161,13729,16704,NA,46640,27887,NA,NA,NA,NA,2377,NA,NA,47161,NA,16145,27002,NA,46640,Runtime for Android template,27,14806,30,0.1,no,1280,0.591471032
90.32258065,90.32258065,20,493.3548387,493.3548387,#000000,no,1,droid,legacy,legacy,0,I confirm that my participation has been explained and consent to taking part in the experiment,relative,1,undefined,undefined,1,0,1,0,46,46,0,0,0,46,0,0,0,0,0,0,NA,0,46,0,0,0,NA,46,727,166,04/03/2018 11:08,A template containing a practice and an experimental phase,96,no,800,1280,15.72330189,yes,Exp_10_working.osexp,C:\Users\russe\Dropbox,no,mono,no,32,no,#ffffff,no,I confirm that my participation has been explained and consent to taking part in the experiment,NA,1,yes,800,ec,droid,30,15,4,C:/Users/russe/Dropbox/Exp_10/subject-2.csv,droid,Jazzy James,3.1.7,0,4,NA,1,NA,1,1,NA,4,488,NA,2414,NA,558,885,NA,488,2,legacy,Male,1024,2,48000,-16,experiment,2,even,droid,5018,NA,NA,47294,47784,13729,16704,NA,47295,27887,NA,NA,NA,NA,2377,NA,NA,47785,NA,16145,27002,NA,47295,Runtime for Android template,28,15294,31,0.08333,no,1280,0.204476691
90.625,90.625,20,496.8125,496.8125,#000000,no,1,droid,legacy,legacy,0,I confirm that my participation has been explained and consent to taking part in the experiment,relative,1,undefined,undefined,1,0,1,0,47,47,0,0,0,47,0,0,0,0,0,0,NA,0,47,0,0,0,NA,47,785,48,04/03/2018 11:08,A template containing a practice and an experimental phase,96,no,800,1280,15.72330189,yes,Exp_10_working.osexp,C:\Users\russe\Dropbox,no,mono,no,32,no,#ffffff,no,I confirm that my participation has been explained and consent to taking part in the experiment,NA,1,yes,800,cc,droid,31,15,4,C:/Users/russe/Dropbox/Exp_10/subject-2.csv,droid,Jazzy James,3.1.7,0,4,NA,1,NA,1,1,NA,4,604,NA,2414,NA,558,885,NA,604,2,legacy,Male,1024,2,48000,-16,experiment,2,even,droid,5018,NA,NA,47906,48512,13729,16704,NA,47907,27887,NA,NA,NA,NA,2377,NA,NA,48512,NA,16145,27002,NA,47907,Runtime for Android template,29,15898,32,0.1,no,1280,1.652584547
90.90909091,90.90909091,20,494.4242424,494.4242424,#000000,no,1,droid,legacy,legacy,0,I confirm that my participation has been explained and consent to taking part in the experiment,relative,1,undefined,undefined,1,0,1,0,48,48,0,0,0,48,0,0,0,0,0,0,NA,0,48,0,0,0,NA,48,962,272,04/03/2018 11:08,A template containing a practice and an experimental phase,96,no,800,1280,15.72330189,yes,Exp_10_working.osexp,C:\Users\russe\Dropbox,no,mono,no,32,no,#ffffff,no,I confirm that my participation has been explained and consent to taking part in the experiment,NA,1,yes,800,ch,droid,32,15,11,C:/Users/russe/Dropbox/Exp_10/subject-2.csv,droid,Jazzy James,3.1.7,0,11,NA,1,NA,1,1,NA,11,418,NA,2414,NA,558,885,NA,418,2,legacy,Male,1024,2,48000,-16,experiment,2,even,droid,5018,NA,NA,48578,49000,13729,16704,NA,48580,27887,NA,NA,NA,NA,2377,NA,NA,49000,NA,16145,27002,NA,48580,Runtime for Android template,30,16316,33,0.1,no,1280,-0.669381497
91.17647059,91.17647059,20,494.9411765,494.9411765,#000000,no,1,droid,legacy,legacy,0,I confirm that my participation has been explained and consent to taking part in the experiment,relative,1,undefined,undefined,1,0,1,0,49,49,0,0,0,49,0,0,0,0,0,0,NA,0,49,0,0,0,NA,49,381,300,04/03/2018 11:08,A template containing a practice and an experimental phase,96,no,800,1280,15.72330189,yes,Exp_10_working.osexp,C:\Users\russe\Dropbox,no,mono,no,32,no,#ffffff,no,I confirm that my participation has been explained and consent to taking part in the experiment,NA,1,yes,800,he,droid,33,15,8,C:/Users/russe/Dropbox/Exp_10/subject-2.csv,droid,Jazzy James,3.1.7,0,8,NA,1,NA,1,1,NA,8,512,NA,2414,NA,558,885,NA,512,2,legacy,Male,1024,2,48000,-16,experiment,2,even,droid,5018,NA,NA,49092,49609,13729,16704,NA,49094,27887,NA,NA,NA,NA,2377,NA,NA,49609,NA,16145,27002,NA,49094,Runtime for Android template,31,16828,34,0.07692,no,1280,0.504085213
91.42857143,91.42857143,20,496.7428571,496.7428571,#000000,no,1,droid,legacy,legacy,0,I confirm that my participation has been explained and consent to taking part in the experiment,relative,1,undefined,undefined,1,0,1,0,50,50,0,0,0,50,0,0,0,0,0,0,NA,0,50,0,0,0,NA,50,865,626,04/03/2018 11:08,A template containing a practice and an experimental phase,96,no,800,1280,15.72330189,yes,Exp_10_working.osexp,C:\Users\russe\Dropbox,no,mono,no,32,no,#ffffff,no,I confirm that my participation has been explained and consent to taking part in the experiment,NA,1,yes,800,ep,droid,34,15,23,C:/Users/russe/Dropbox/Exp_10/subject-2.csv,droid,Jazzy James,3.1.7,0,23,NA,1,NA,1,1,NA,23,558,NA,2414,NA,558,885,NA,558,2,legacy,Male,1024,2,48000,-16,experiment,2,even,droid,5018,NA,NA,49711,50272,13729,16704,NA,49713,27887,NA,NA,NA,NA,2377,NA,NA,50273,NA,16145,27002,NA,49713,Runtime for Android template,32,17386,35,0.08333,no,1280,1.07833488
91.66666667,91.66666667,20,495.4722222,495.4722222,#000000,no,1,droid,legacy,legacy,0,I confirm that my participation has been explained and consent to taking part in the experiment,relative,1,undefined,undefined,1,0,1,0,51,51,0,0,0,51,0,0,0,0,0,0,NA,0,51,0,0,0,NA,51,556,336,04/03/2018 11:08,A template containing a practice and an experimental phase,96,no,800,1280,15.72330189,yes,Exp_10_working.osexp,C:\Users\russe\Dropbox,no,mono,no,32,no,#ffffff,no,I confirm that my participation has been explained and consent to taking part in the experiment,NA,1,yes,800,pf,droid,35,15,9,C:/Users/russe/Dropbox/Exp_10/subject-2.csv,droid,Jazzy James,3.1.7,0,9,NA,1,NA,1,1,NA,9,451,NA,2414,NA,558,885,NA,451,2,legacy,Male,1024,2,48000,-16,experiment,2,even,droid,5018,NA,NA,50697,51152,13729,16704,NA,50699,27887,NA,NA,NA,NA,2377,NA,NA,51152,NA,16145,27002,NA,50699,Runtime for Android template,33,17837,36,0.2,no,1280,-0.25741978
91.89189189,91.89189189,20,494.4324324,494.4324324,#000000,no,1,droid,legacy,legacy,0,I confirm that my participation has been explained and consent to taking part in the experiment,relative,1,undefined,undefined,1,0,1,0,52,52,0,0,0,52,0,0,0,0,0,0,NA,0,52,0,0,0,NA,52,313,324,04/03/2018 11:08,A template containing a practice and an experimental phase,96,no,800,1280,15.72330189,yes,Exp_10_working.osexp,C:\Users\russe\Dropbox,no,mono,no,32,no,#ffffff,no,I confirm that my participation has been explained and consent to taking part in the experiment,NA,1,yes,800,fe,droid,36,15,8,C:/Users/russe/Dropbox/Exp_10/subject-2.csv,droid,Jazzy James,3.1.7,0,8,NA,1,NA,1,1,NA,8,457,NA,2414,NA,558,885,NA,457,2,legacy,Male,1024,2,48000,-16,experiment,2,even,droid,5018,NA,NA,51317,51777,13729,16704,NA,51318,27887,NA,NA,NA,NA,2377,NA,NA,51777,NA,16145,27002,NA,51318,Runtime for Android template,34,18294,37,0.33333,no,1280,-0.182517649
92.10526316,92.10526316,20,494.1315789,494.1315789,#000000,no,1,droid,legacy,legacy,0,I confirm that my participation has been explained and consent to taking part in the experiment,relative,1,undefined,undefined,1,0,1,0,53,53,0,0,0,53,0,0,0,0,0,0,NA,0,53,0,0,0,NA,53,953,321,04/03/2018 11:08,A template containing a practice and an experimental phase,96,no,800,1280,15.72330189,yes,Exp_10_working.osexp,C:\Users\russe\Dropbox,no,mono,no,32,no,#ffffff,no,I confirm that my participation has been explained and consent to taking part in the experiment,NA,1,yes,800,eh,droid,37,15,11,C:/Users/russe/Dropbox/Exp_10/subject-2.csv,droid,Jazzy James,3.1.7,0,11,NA,1,NA,1,1,NA,11,483,NA,2414,NA,558,885,NA,483,2,legacy,Male,1024,2,48000,-16,experiment,2,even,droid,5018,NA,NA,51889,52377,13729,16704,NA,51891,27887,NA,NA,NA,NA,2377,NA,NA,52377,NA,16145,27002,NA,51891,Runtime for Android template,35,18777,38,0.08333,no,1280,0.142058249
92.30769231,92.30769231,20,494.6666667,494.6666667,#000000,no,1,droid,legacy,legacy,0,I confirm that my participation has been explained and consent to taking part in the experiment,relative,1,undefined,undefined,1,0,1,0,54,54,0,0,0,54,0,0,0,0,0,0,NA,0,54,0,0,0,NA,54,415,756,04/03/2018 11:08,A template containing a practice and an experimental phase,96,no,800,1280,15.72330189,yes,Exp_10_working.osexp,C:\Users\russe\Dropbox,no,mono,no,32,no,#ffffff,no,I confirm that my participation has been explained and consent to taking part in the experiment,NA,1,yes,800,hm,droid,38,15,20,C:/Users/russe/Dropbox/Exp_10/subject-2.csv,droid,Jazzy James,3.1.7,0,20,NA,1,NA,1,1,NA,20,515,NA,2414,NA,558,885,NA,515,2,legacy,Male,1024,2,48000,-16,experiment,2,even,droid,5018,NA,NA,52547,53065,13729,16704,NA,52548,27887,NA,NA,NA,NA,2377,NA,NA,53065,NA,16145,27002,NA,52548,Runtime for Android template,36,19292,39,0.07692,no,1280,0.541536278
92.5,92.5,20,492.075,492.075,#000000,no,1,droid,legacy,legacy,0,I confirm that my participation has been explained and consent to taking part in the experiment,relative,1,undefined,undefined,1,0,1,0,55,55,0,0,0,55,0,0,0,0,0,0,NA,0,55,0,0,0,NA,55,538,310,04/03/2018 11:08,A template containing a practice and an experimental phase,96,no,800,1280,15.72330189,yes,Exp_10_working.osexp,C:\Users\russe\Dropbox,no,mono,no,32,no,#ffffff,no,I confirm that my participation has been explained and consent to taking part in the experiment,NA,1,yes,800,mf,droid,39,15,9,C:/Users/russe/Dropbox/Exp_10/subject-2.csv,droid,Jazzy James,3.1.7,0,9,NA,1,NA,1,1,NA,9,391,NA,2414,NA,558,885,NA,391,2,legacy,Male,1024,2,48000,-16,experiment,2,even,droid,5018,NA,NA,53238,53632,13729,16704,NA,53240,27887,NA,NA,NA,NA,2377,NA,NA,53632,NA,16145,27002,NA,53240,Runtime for Android template,37,19683,40,0.11111,no,1280,-1.006441084
92.68292683,92.68292683,20,491.9512195,491.9512195,#000000,no,1,droid,legacy,legacy,0,I confirm that my participation has been explained and consent to taking part in the experiment,relative,1,undefined,undefined,1,0,1,0,56,56,0,0,0,56,0,0,0,0,0,0,NA,0,56,0,0,0,NA,56,285,710,04/03/2018 11:08,A template containing a practice and an experimental phase,96,no,800,1280,15.72330189,yes,Exp_10_working.osexp,C:\Users\russe\Dropbox,no,mono,no,32,no,#ffffff,no,I confirm that my participation has been explained and consent to taking part in the experiment,NA,1,yes,800,fm,droid,40,15,20,C:/Users/russe/Dropbox/Exp_10/subject-2.csv,droid,Jazzy James,3.1.7,0,20,NA,1,NA,1,1,NA,20,487,NA,2414,NA,558,885,NA,487,2,legacy,Male,1024,2,48000,-16,experiment,2,even,droid,5018,NA,NA,53741,54233,13729,16704,NA,53743,27887,NA,NA,NA,NA,2377,NA,NA,54233,NA,16145,27002,NA,53743,Runtime for Android template,38,20170,41,0.33333,no,1280,0.191993003
92.85714286,92.85714286,20,491.4761905,491.4761905,#000000,no,1,droid,legacy,legacy,0,I confirm that my participation has been explained and consent to taking part in the experiment,relative,1,undefined,undefined,1,0,1,0,57,57,0,0,0,57,0,0,0,0,0,0,NA,0,57,0,0,0,NA,57,543,732,04/03/2018 11:08,A template containing a practice and an experimental phase,96,no,800,1280,15.72330189,yes,Exp_10_working.osexp,C:\Users\russe\Dropbox,no,mono,no,32,no,#ffffff,no,I confirm that my participation has been explained and consent to taking part in the experiment,NA,1,yes,800,mn,droid,41,15,21,C:/Users/russe/Dropbox/Exp_10/subject-2.csv,droid,Jazzy James,3.1.7,0,21,NA,1,NA,1,1,NA,21,472,NA,2414,NA,558,885,NA,472,2,legacy,Male,1024,2,48000,-16,experiment,2,even,droid,5018,NA,NA,54341,54816,13729,16704,NA,54343,27887,NA,NA,NA,NA,2377,NA,NA,54816,NA,16145,27002,NA,54343,Runtime for Android template,39,20642,42,0.11111,no,1280,0.004737677
93.02325581,93.02325581,20,490.255814,490.255814,#000000,no,1,droid,legacy,legacy,0,I confirm that my participation has been explained and consent to taking part in the experiment,relative,1,undefined,undefined,1,0,1,0,58,58,0,0,0,58,0,0,0,0,0,0,NA,0,58,0,0,0,NA,58,947,298,04/03/2018 11:08,A template containing a practice and an experimental phase,96,no,800,1280,15.72330189,yes,Exp_10_working.osexp,C:\Users\russe\Dropbox,no,mono,no,32,no,#ffffff,no,I confirm that my participation has been explained and consent to taking part in the experiment,NA,4,yes,800,nh,droid,42,15,11,C:/Users/russe/Dropbox/Exp_10/subject-2.csv,droid,Jazzy James,3.1.7,0,11,NA,1,NA,1,1,NA,11,439,NA,2414,NA,558,885,NA,439,2,legacy,Male,1024,2,48000,-16,experiment,2,even,droid,5018,NA,NA,54941,55384,13729,16704,NA,54942,27887,NA,NA,NA,NA,2377,NA,NA,55384,NA,16145,27002,NA,54943,Runtime for Android template,40,21081,43,0.8,no,1280,-0.407224041
93.18181818,93.18181818,20,491.7954545,491.7954545,#000000,no,1,droid,legacy,legacy,0,I confirm that my participation has been explained and consent to taking part in the experiment,relative,1,undefined,undefined,1,0,1,0,59,59,0,0,0,59,0,0,0,0,0,0,NA,0,59,0,0,0,NA,59,919,509,04/03/2018 11:08,A template containing a practice and an experimental phase,96,no,800,1280,15.72330189,yes,Exp_10_working.osexp,C:\Users\russe\Dropbox,no,mono,no,32,no,#ffffff,no,I confirm that my participation has been explained and consent to taking part in the experiment,NA,1,yes,800,hl,droid,43,15,17,C:/Users/russe/Dropbox/Exp_10/subject-2.csv,droid,Jazzy James,3.1.7,0,17,NA,1,NA,1,1,NA,17,558,NA,2414,NA,558,885,NA,558,2,legacy,Male,1024,2,48000,-16,experiment,2,even,droid,5018,NA,NA,55456,56016,13729,16704,NA,55457,27887,NA,NA,NA,NA,2377,NA,NA,56016,NA,16145,27002,NA,55457,Runtime for Android template,41,21639,44,0.07692,no,1280,1.07833488
93.33333333,93.33333333,20,490.3555556,490.3555556,#000000,no,1,droid,legacy,legacy,0,I confirm that my participation has been explained and consent to taking part in the experiment,relative,1,undefined,undefined,1,0,1,0,60,60,0,0,0,60,0,0,0,0,0,0,NA,0,60,0,0,0,NA,60,739,545,04/03/2018 11:08,A template containing a practice and an experimental phase,96,no,800,1280,15.72330189,yes,Exp_10_working.osexp,C:\Users\russe\Dropbox,no,mono,no,32,no,#ffffff,no,I confirm that my participation has been explained and consent to taking part in the experiment,NA,1,yes,800,lk,droid,44,15,16,C:/Users/russe/Dropbox/Exp_10/subject-2.csv,droid,Jazzy James,3.1.7,0,16,NA,1,NA,1,1,NA,16,427,NA,2414,NA,558,885,NA,427,2,legacy,Male,1024,2,48000,-16,experiment,2,even,droid,5018,NA,NA,56202,56632,13729,16704,NA,56204,27887,NA,NA,NA,NA,2377,NA,NA,56632,NA,16145,27002,NA,56204,Runtime for Android template,42,22066,45,0.25,no,1280,-0.557028301
93.47826087,93.47826087,20,489.5869565,489.5869565,#000000,no,1,droid,legacy,legacy,0,I confirm that my participation has been explained and consent to taking part in the experiment,relative,1,undefined,undefined,1,0,1,0,61,61,0,0,0,61,0,0,0,0,0,0,NA,0,61,0,0,0,NA,61,756,501,04/03/2018 11:08,A template containing a practice and an experimental phase,96,no,800,1280,15.72330189,yes,Exp_10_working.osexp,C:\Users\russe\Dropbox,no,mono,no,32,no,#ffffff,no,I confirm that my participation has been explained and consent to taking part in the experiment,NA,1,yes,800,kk,droid,45,15,16,C:/Users/russe/Dropbox/Exp_10/subject-2.csv,droid,Jazzy James,3.1.7,0,16,NA,1,NA,1,1,NA,16,455,NA,2414,NA,558,885,NA,455,2,legacy,Male,1024,2,48000,-16,experiment,2,even,droid,5018,NA,NA,56702,57161,13729,16704,NA,56704,27887,NA,NA,NA,NA,2377,NA,NA,57161,NA,16145,27002,NA,56704,Runtime for Android template,43,22521,46,0.125,no,1280,-0.207485026
93.61702128,93.61702128,20,489.2553191,489.2553191,#000000,no,1,droid,legacy,legacy,0,I confirm that my participation has been explained and consent to taking part in the experiment,relative,1,undefined,undefined,1,0,1,0,62,62,0,0,0,62,0,0,0,0,0,0,NA,0,62,0,0,0,NA,62,942,316,04/03/2018 11:08,A template containing a practice and an experimental phase,96,no,800,1280,15.72330189,yes,Exp_10_working.osexp,C:\Users\russe\Dropbox,no,mono,no,32,no,#ffffff,no,I confirm that my participation has been explained and consent to taking part in the experiment,NA,2,yes,800,kh,droid,46,15,11,C:/Users/russe/Dropbox/Exp_10/subject-2.csv,droid,Jazzy James,3.1.7,0,11,NA,1,NA,1,1,NA,11,474,NA,2414,NA,558,885,NA,474,2,legacy,Male,1024,2,48000,-16,experiment,2,even,droid,5018,NA,NA,57236,57712,13729,16704,NA,57237,27887,NA,NA,NA,NA,2377,NA,NA,57712,NA,16145,27002,NA,57237,Runtime for Android template,44,22995,47,0.25,no,1280,0.029705054
93.75,93.75,20,490.4791667,490.4791667,#000000,no,1,droid,legacy,legacy,0,I confirm that my participation has been explained and consent to taking part in the experiment,relative,1,undefined,undefined,1,0,1,0,63,63,0,0,0,63,0,0,0,0,0,0,NA,0,63,0,0,0,NA,63,769,97,04/03/2018 11:08,A template containing a practice and an experimental phase,96,no,800,1280,15.72330189,yes,Exp_10_working.osexp,C:\Users\russe\Dropbox,no,mono,no,32,no,#ffffff,no,I confirm that my participation has been explained and consent to taking part in the experiment,NA,1,yes,800,hd,droid,47,15,4,C:/Users/russe/Dropbox/Exp_10/subject-2.csv,droid,Jazzy James,3.1.7,0,4,NA,1,NA,1,1,NA,4,548,NA,2414,NA,558,885,NA,548,2,legacy,Male,1024,2,48000,-16,experiment,2,even,droid,5018,NA,NA,57777,58329,13729,16704,NA,57779,27887,NA,NA,NA,NA,2377,NA,NA,58329,NA,16145,27002,NA,57779,Runtime for Android template,45,23543,48,0.07692,no,1280,0.953497996
93.87755102,93.87755102,20,493.6326531,493.6326531,#000000,no,1,droid,legacy,legacy,0,I confirm that my participation has been explained and consent to taking part in the experiment,relative,1,undefined,undefined,1,0,1,0,64,64,0,0,0,64,0,0,0,0,0,0,NA,0,64,0,0,0,NA,64,776,674,04/03/2018 11:08,A template containing a practice and an experimental phase,96,no,800,1280,15.72330189,yes,Exp_10_working.osexp,C:\Users\russe\Dropbox,no,mono,no,32,no,#ffffff,no,I confirm that my participation has been explained and consent to taking part in the experiment,NA,1,yes,800,do,droid,48,15,22,C:/Users/russe/Dropbox/Exp_10/subject-2.csv,droid,Jazzy James,3.1.7,0,22,NA,1,NA,1,1,NA,22,645,NA,2414,NA,558,885,NA,645,2,legacy,Male,1024,2,48000,-16,experiment,2,even,droid,5018,NA,NA,58448,59096,13729,16704,NA,58450,27887,NA,NA,NA,NA,2377,NA,NA,59096,NA,16145,27002,NA,58450,Runtime for Android template,46,24188,49,0.33333,no,1280,2.164415771
94,94,20,493.12,493.12,#000000,no,1,droid,legacy,legacy,0,I confirm that my participation has been explained and consent to taking part in the experiment,relative,1,undefined,undefined,1,0,1,0,65,65,0,0,0,65,0,0,0,0,0,0,NA,0,65,0,0,0,NA,65,575,676,04/03/2018 11:08,A template containing a practice and an experimental phase,96,no,800,1280,15.72330189,yes,Exp_10_working.osexp,C:\Users\russe\Dropbox,no,mono,no,32,no,#ffffff,no,I confirm that my participation has been explained and consent to taking part in the experiment,NA,1,yes,800,on,droid,49,15,21,C:/Users/russe/Dropbox/Exp_10/subject-2.csv,droid,Jazzy James,3.1.7,0,21,NA,1,NA,1,1,NA,21,468,NA,2414,NA,558,885,NA,468,2,legacy,Male,1024,2,48000,-16,experiment,2,even,droid,5018,NA,NA,59176,59648,13729,16704,NA,59178,27887,NA,NA,NA,NA,2377,NA,NA,59648,NA,16145,27002,NA,59178,Runtime for Android template,47,24656,50,0.0625,no,1280,-0.045197077
94.11764706,94.11764706,20,492.9803922,492.9803922,#000000,no,1,droid,legacy,legacy,0,I confirm that my participation has been explained and consent to taking part in the experiment,relative,1,undefined,undefined,1,0,1,0,66,66,0,0,0,66,0,0,0,0,0,0,NA,0,66,0,0,0,NA,66,705,479,04/03/2018 11:08,A template containing a practice and an experimental phase,96,no,800,1280,15.72330189,yes,Exp_10_working.osexp,C:\Users\russe\Dropbox,no,mono,no,32,no,#ffffff,no,I confirm that my participation has been explained and consent to taking part in the experiment,NA,1,yes,800,nk,droid,50,15,16,C:/Users/russe/Dropbox/Exp_10/subject-2.csv,droid,Jazzy James,3.1.7,0,16,NA,1,NA,1,1,NA,16,486,NA,2414,NA,558,885,NA,486,2,legacy,Male,1024,2,48000,-16,experiment,2,even,droid,5018,NA,NA,59847,60337,13729,16704,NA,59849,27887,NA,NA,NA,NA,2377,NA,NA,60337,NA,16145,27002,NA,59849,Runtime for Android template,48,25142,51,0.2,no,1280,0.179509315
94.23076923,94.23076923,20,493.0769231,493.0769231,#000000,no,1,droid,legacy,legacy,0,I confirm that my participation has been explained and consent to taking part in the experiment,relative,1,undefined,undefined,1,0,1,0,67,67,0,0,0,67,0,0,0,0,0,0,NA,0,67,0,0,0,NA,67,266,257,04/03/2018 11:08,A template containing a practice and an experimental phase,96,no,800,1280,15.72330189,yes,Exp_10_working.osexp,C:\Users\russe\Dropbox,no,mono,no,32,no,#ffffff,no,I confirm that my participation has been explained and consent to taking part in the experiment,NA,1,yes,800,ke,droid,51,15,8,C:/Users/russe/Dropbox/Exp_10/subject-2.csv,droid,Jazzy James,3.1.7,0,8,NA,1,NA,1,1,NA,8,498,NA,2414,NA,558,885,NA,498,2,legacy,Male,1024,2,48000,-16,experiment,2,even,droid,5018,NA,NA,60419,60921,13729,16704,NA,60420,27887,NA,NA,NA,NA,2377,NA,NA,60921,NA,16145,27002,NA,60420,Runtime for Android template,49,25640,52,0.125,no,1280,0.329313575
94.33962264,94.33962264,20,492.8679245,492.8679245,#000000,no,1,droid,legacy,legacy,0,I confirm that my participation has been explained and consent to taking part in the experiment,relative,1,undefined,undefined,1,0,1,0,68,68,0,0,0,68,0,0,0,0,0,0,NA,0,68,0,0,0,NA,68,766,692,04/03/2018 11:08,A template containing a practice and an experimental phase,96,no,800,1280,15.72330189,yes,Exp_10_working.osexp,C:\Users\russe\Dropbox,no,mono,no,32,no,#ffffff,no,I confirm that my participation has been explained and consent to taking part in the experiment,NA,1,yes,800,eo,droid,52,15,22,C:/Users/russe/Dropbox/Exp_10/subject-2.csv,droid,Jazzy James,3.1.7,0,22,NA,1,NA,1,1,NA,22,482,NA,2414,NA,558,885,NA,482,2,legacy,Male,1024,2,48000,-16,experiment,2,even,droid,5018,NA,NA,61026,61513,13729,16704,NA,61028,27887,NA,NA,NA,NA,2377,NA,NA,61513,NA,16145,27002,NA,61028,Runtime for Android template,50,26122,53,0.08333,no,1280,0.129574561
94.44444444,94.44444444,20,494.9259259,494.9259259,#000000,no,1,droid,legacy,legacy,0,I confirm that my participation has been explained and consent to taking part in the experiment,relative,1,undefined,undefined,1,0,1,0,69,69,0,0,0,69,0,0,0,0,0,0,NA,0,69,0,0,0,NA,69,366,89,04/03/2018 11:08,A template containing a practice and an experimental phase,96,no,800,1280,15.72330189,yes,Exp_10_working.osexp,C:\Users\russe\Dropbox,no,mono,no,32,no,#ffffff,no,I confirm that my participation has been explained and consent to taking part in the experiment,NA,4,yes,800,oa,droid,53,15,2,C:/Users/russe/Dropbox/Exp_10/subject-2.csv,droid,Jazzy James,3.1.7,0,2,NA,1,NA,1,1,NA,2,604,NA,2414,NA,558,885,NA,604,2,legacy,Male,1024,2,48000,-16,experiment,2,even,droid,5018,NA,NA,61744,62352,13729,16704,NA,61746,27887,NA,NA,NA,NA,2377,NA,NA,62352,NA,16145,27002,NA,61746,Runtime for Android template,51,26726,54,0.25,no,1280,1.652584547
94.54545455,94.54545455,20,493.7818182,493.7818182,#000000,no,1,droid,legacy,legacy,0,I confirm that my participation has been explained and consent to taking part in the experiment,relative,1,undefined,undefined,1,0,1,0,70,70,0,0,0,70,0,0,0,0,0,0,NA,0,70,0,0,0,NA,70,331,338,04/03/2018 11:08,A template containing a practice and an experimental phase,96,no,800,1280,15.72330189,yes,Exp_10_working.osexp,C:\Users\russe\Dropbox,no,mono,no,32,no,#ffffff,no,I confirm that my participation has been explained and consent to taking part in the experiment,NA,1,yes,800,ae,droid,54,15,8,C:/Users/russe/Dropbox/Exp_10/subject-2.csv,droid,Jazzy James,3.1.7,0,8,NA,1,NA,1,1,NA,8,432,NA,2414,NA,558,885,NA,432,2,legacy,Male,1024,2,48000,-16,experiment,2,even,droid,5018,NA,NA,62430,62865,13729,16704,NA,62431,27887,NA,NA,NA,NA,2377,NA,NA,62865,NA,16145,27002,NA,62431,Runtime for Android template,52,27158,55,0.16667,no,1280,-0.494609859
94.64285714,94.64285714,20,493.875,493.875,#000000,no,1,droid,legacy,legacy,0,I confirm that my participation has been explained and consent to taking part in the experiment,relative,1,undefined,undefined,1,0,1,0,71,71,0,0,0,71,0,0,0,0,0,0,NA,0,71,0,0,0,NA,71,338,706,04/03/2018 11:08,A template containing a practice and an experimental phase,96,no,800,1280,15.72330189,yes,Exp_10_working.osexp,C:\Users\russe\Dropbox,no,mono,no,32,no,#ffffff,no,I confirm that my participation has been explained and consent to taking part in the experiment,NA,1,yes,800,em,droid,55,15,20,C:/Users/russe/Dropbox/Exp_10/subject-2.csv,droid,Jazzy James,3.1.7,0,20,NA,1,NA,1,1,NA,20,499,NA,2414,NA,558,885,NA,499,2,legacy,Male,1024,2,48000,-16,experiment,2,even,droid,5018,NA,NA,62945,63449,13729,16704,NA,62947,27887,NA,NA,NA,NA,2377,NA,NA,63449,NA,16145,27002,NA,62947,Runtime for Android template,53,27657,56,0.08333,no,1280,0.341797264
94.73684211,94.73684211,20,493.1403509,493.1403509,#000000,no,1,droid,legacy,legacy,0,I confirm that my participation has been explained and consent to taking part in the experiment,relative,1,undefined,undefined,1,0,1,0,72,72,0,0,0,72,0,0,0,0,0,0,NA,0,72,0,0,0,NA,72,721,701,04/03/2018 11:08,A template containing a practice and an experimental phase,96,no,800,1280,15.72330189,yes,Exp_10_working.osexp,C:\Users\russe\Dropbox,no,mono,no,32,no,#ffffff,no,I confirm that my participation has been explained and consent to taking part in the experiment,NA,2,yes,800,mo,droid,56,15,22,C:/Users/russe/Dropbox/Exp_10/subject-2.csv,droid,Jazzy James,3.1.7,0,22,NA,1,NA,1,1,NA,22,452,NA,2414,NA,558,885,NA,452,2,legacy,Male,1024,2,48000,-16,experiment,2,even,droid,5018,NA,NA,63753,64209,13729,16704,NA,63755,27887,NA,NA,NA,NA,2377,NA,NA,64209,NA,16145,27002,NA,63755,Runtime for Android template,54,28109,57,0.22222,no,1280,-0.244936091
94.82758621,94.82758621,20,492.7241379,492.7241379,#000000,no,1,droid,legacy,legacy,0,I confirm that my participation has been explained and consent to taking part in the experiment,relative,1,undefined,undefined,1,0,1,0,73,73,0,0,0,73,0,0,0,0,0,0,NA,0,73,0,0,0,NA,73,771,668,04/03/2018 11:08,A template containing a practice and an experimental phase,96,no,800,1280,15.72330189,yes,Exp_10_working.osexp,C:\Users\russe\Dropbox,no,mono,no,32,no,#ffffff,no,I confirm that my participation has been explained and consent to taking part in the experiment,NA,1,yes,800,oo,droid,57,15,22,C:/Users/russe/Dropbox/Exp_10/subject-2.csv,droid,Jazzy James,3.1.7,0,22,NA,1,NA,1,1,NA,22,469,NA,2414,NA,558,885,NA,469,2,legacy,Male,1024,2,48000,-16,experiment,2,even,droid,5018,NA,NA,64328,64801,13729,16704,NA,64330,27887,NA,NA,NA,NA,2377,NA,NA,64801,NA,16145,27002,NA,64330,Runtime for Android template,55,28578,58,0.0625,no,1280,-0.032713388
94.91525424,94.91525424,20,493.4915254,493.4915254,#000000,no,1,droid,legacy,legacy,0,I confirm that my participation has been explained and consent to taking part in the experiment,relative,1,undefined,undefined,1,0,1,0,74,74,0,0,0,74,0,0,0,0,0,0,NA,0,74,0,0,0,NA,74,960,679,04/03/2018 11:08,A template containing a practice and an experimental phase,96,no,800,1280,15.72330189,yes,Exp_10_working.osexp,C:\Users\russe\Dropbox,no,mono,no,32,no,#ffffff,no,I confirm that my participation has been explained and consent to taking part in the experiment,NA,1,yes,800,op,droid,58,15,23,C:/Users/russe/Dropbox/Exp_10/subject-2.csv,droid,Jazzy James,3.1.7,0,23,NA,1,NA,1,1,NA,23,538,NA,2414,NA,558,885,NA,538,2,legacy,Male,1024,2,48000,-16,experiment,2,even,droid,5018,NA,NA,65011,65553,13729,16704,NA,65013,27887,NA,NA,NA,NA,2377,NA,NA,65553,NA,16145,27002,NA,65013,Runtime for Android template,56,29116,59,0.0625,no,1280,0.828661112
95,95,20,491.05,491.05,#000000,no,1,droid,legacy,legacy,0,I confirm that my participation has been explained and consent to taking part in the experiment,relative,1,undefined,undefined,1,0,1,0,75,75,0,0,0,75,0,0,0,0,0,0,NA,0,75,0,0,0,NA,75,743,372,04/03/2018 11:08,A template containing a practice and an experimental phase,96,no,800,1280,15.72330189,yes,Exp_10_working.osexp,C:\Users\russe\Dropbox,no,mono,no,32,no,#ffffff,no,I confirm that my participation has been explained and consent to taking part in the experiment,NA,1,yes,800,pg,droid,59,15,10,C:/Users/russe/Dropbox/Exp_10/subject-2.csv,droid,Jazzy James,3.1.7,0,10,NA,1,NA,1,1,NA,10,347,NA,2414,NA,558,885,NA,347,2,legacy,Male,1024,2,48000,-16,experiment,2,even,droid,5018,NA,NA,65707,66057,13729,16704,NA,65708,27887,NA,NA,NA,NA,2377,NA,NA,66057,NA,16145,27002,NA,65708,Runtime for Android template,57,29463,60,0.2,no,1280,-1.555723374
95.08196721,95.08196721,20,490.7540984,490.7540984,#000000,no,1,droid,legacy,legacy,0,I confirm that my participation has been explained and consent to taking part in the experiment,relative,1,undefined,undefined,1,0,1,0,76,76,0,0,0,76,0,0,0,0,0,0,NA,0,76,0,0,0,NA,76,307,707,04/03/2018 11:08,A template containing a practice and an experimental phase,96,no,800,1280,15.72330189,yes,Exp_10_working.osexp,C:\Users\russe\Dropbox,no,mono,no,32,no,#ffffff,no,I confirm that my participation has been explained and consent to taking part in the experiment,NA,1,yes,800,gm,droid,60,15,20,C:/Users/russe/Dropbox/Exp_10/subject-2.csv,droid,Jazzy James,3.1.7,0,20,NA,1,NA,1,1,NA,20,473,NA,2414,NA,558,885,NA,473,2,legacy,Male,1024,2,48000,-16,experiment,2,even,droid,5018,NA,NA,66195,66672,13729,16704,NA,66197,27887,NA,NA,NA,NA,2377,NA,NA,66672,NA,16145,27002,NA,66197,Runtime for Android template,58,29936,61,0.2,no,1280,0.017221365
95.16129032,95.16129032,20,489.8387097,489.8387097,#000000,no,1,droid,legacy,legacy,0,I confirm that my participation has been explained and consent to taking part in the experiment,relative,1,undefined,undefined,1,0,1,0,77,77,0,0,0,77,0,0,0,0,0,0,NA,0,77,0,0,0,NA,77,361,281,04/03/2018 11:08,A template containing a practice and an experimental phase,96,no,800,1280,15.72330189,yes,Exp_10_working.osexp,C:\Users\russe\Dropbox,no,mono,no,32,no,#ffffff,no,I confirm that my participation has been explained and consent to taking part in the experiment,NA,2,yes,800,me,droid,61,15,8,C:/Users/russe/Dropbox/Exp_10/subject-2.csv,droid,Jazzy James,3.1.7,0,8,NA,1,NA,1,1,NA,8,434,NA,2414,NA,558,885,NA,434,2,legacy,Male,1024,2,48000,-16,experiment,2,even,droid,5018,NA,NA,66795,67233,13729,16704,NA,66797,27887,NA,NA,NA,NA,2377,NA,NA,67233,NA,16145,27002,NA,66797,Runtime for Android template,59,30370,62,0.22222,no,1280,-0.469642483
95.23809524,95.23809524,20,489.5396825,489.5396825,#000000,no,1,droid,legacy,legacy,0,I confirm that my participation has been explained and consent to taking part in the experiment,relative,1,undefined,undefined,1,0,1,0,78,78,0,0,0,78,0,0,0,0,0,0,NA,0,78,0,0,0,NA,78,717,108,04/03/2018 11:08,A template containing a practice and an experimental phase,96,no,800,1280,15.72330189,yes,Exp_10_working.osexp,C:\Users\russe\Dropbox,no,mono,no,32,no,#ffffff,no,I confirm that my participation has been explained and consent to taking part in the experiment,NA,1,yes,800,ed,droid,62,15,4,C:/Users/russe/Dropbox/Exp_10/subject-2.csv,droid,Jazzy James,3.1.7,0,4,NA,1,NA,1,1,NA,4,471,NA,2414,NA,558,885,NA,471,2,legacy,Male,1024,2,48000,-16,experiment,2,even,droid,5018,NA,NA,67374,67849,13729,16704,NA,67376,27887,NA,NA,NA,NA,2377,NA,NA,67849,NA,16145,27002,NA,67376,Runtime for Android template,60,30841,63,0.83333,no,1280,-0.007746012
95.3125,95.3125,20,490.546875,490.546875,#000000,no,1,droid,legacy,legacy,0,I confirm that my participation has been explained and consent to taking part in the experiment,relative,1,undefined,undefined,1,0,1,0,79,79,0,0,0,79,0,0,0,0,0,0,NA,0,79,0,0,0,NA,79,282,1,04/03/2018 11:08,A template containing a practice and an experimental phase,96,no,800,1280,15.72330189,yes,Exp_10_working.osexp,C:\Users\russe\Dropbox,no,mono,no,32,no,#ffffff,no,I confirm that my participation has been explained and consent to taking part in the experiment,NA,1,yes,800,da,droid,63,15,2,C:/Users/russe/Dropbox/Exp_10/subject-2.csv,droid,Jazzy James,3.1.7,0,2,NA,1,NA,1,1,NA,2,554,NA,2414,NA,558,885,NA,554,2,legacy,Male,1024,2,48000,-16,experiment,2,even,droid,5018,NA,NA,68315,68873,13729,16704,NA,68317,27887,NA,NA,NA,NA,2377,NA,NA,68873,NA,16145,27002,NA,68317,Runtime for Android template,61,31395,64,0.33333,no,1280,1.028400126
95.38461538,95.38461538,20,489.7230769,489.7230769,#000000,no,1,droid,legacy,legacy,0,I confirm that my participation has been explained and consent to taking part in the experiment,relative,1,undefined,undefined,1,0,1,0,80,80,0,0,0,80,0,0,0,0,0,0,NA,0,80,0,0,0,NA,80,473,46,04/03/2018 11:08,A template containing a practice and an experimental phase,96,no,800,1280,15.72330189,yes,Exp_10_working.osexp,C:\Users\russe\Dropbox,no,mono,no,32,no,#ffffff,no,I confirm that my participation has been explained and consent to taking part in the experiment,NA,2,yes,800,ab,droid,64,15,3,C:/Users/russe/Dropbox/Exp_10/subject-2.csv,droid,Jazzy James,3.1.7,0,3,NA,1,NA,1,1,NA,3,437,NA,2414,NA,558,885,NA,437,2,legacy,Male,1024,2,48000,-16,experiment,2,even,droid,5018,NA,NA,69022,69465,13729,16704,NA,69024,27887,NA,NA,NA,NA,2377,NA,NA,69465,NA,16145,27002,NA,69025,Runtime for Android template,62,31832,65,0.33333,no,1280,-0.432191417
95.45454545,95.45454545,20,489.8333333,489.8333333,#000000,no,1,droid,legacy,legacy,0,I confirm that my participation has been explained and consent to taking part in the experiment,relative,1,undefined,undefined,1,0,1,0,81,81,0,0,0,81,0,0,0,0,0,0,NA,0,81,0,0,0,NA,81,957,781,04/03/2018 11:08,A template containing a practice and an experimental phase,96,no,800,1280,15.72330189,yes,Exp_10_working.osexp,C:\Users\russe\Dropbox,no,mono,no,32,no,#ffffff,no,I confirm that my participation has been explained and consent to taking part in the experiment,NA,1,yes,800,bp,droid,65,15,23,C:/Users/russe/Dropbox/Exp_10/subject-2.csv,droid,Jazzy James,3.1.7,0,23,NA,1,NA,1,1,NA,23,497,NA,2414,NA,558,885,NA,497,2,legacy,Male,1024,2,48000,-16,experiment,2,even,droid,5018,NA,NA,69636,70137,13729,16704,NA,69638,27887,NA,NA,NA,NA,2377,NA,NA,70137,NA,16145,27002,NA,69638,Runtime for Android template,63,32329,66,0.125,no,1280,0.316829887
95.52238806,95.52238806,20,490,490,#000000,no,1,droid,legacy,legacy,0,I confirm that my participation has been explained and consent to taking part in the experiment,relative,1,undefined,undefined,1,0,1,0,82,82,0,0,0,82,0,0,0,0,0,0,NA,0,82,0,0,0,NA,82,289,326,04/03/2018 11:08,A template containing a practice and an experimental phase,96,no,800,1280,15.72330189,yes,Exp_10_working.osexp,C:\Users\russe\Dropbox,no,mono,no,32,no,#ffffff,no,I confirm that my participation has been explained and consent to taking part in the experiment,NA,1,yes,800,pe,droid,66,15,8,C:/Users/russe/Dropbox/Exp_10/subject-2.csv,droid,Jazzy James,3.1.7,0,8,NA,1,NA,1,1,NA,8,501,NA,2414,NA,558,885,NA,501,2,legacy,Male,1024,2,48000,-16,experiment,2,even,droid,5018,NA,NA,70256,70761,13729,16704,NA,70258,27887,NA,NA,NA,NA,2377,NA,NA,70761,NA,16145,27002,NA,70258,Runtime for Android template,64,32830,67,0.2,no,1280,0.366764641
95.58823529,95.58823529,20,489.75,489.75,#000000,no,1,droid,legacy,legacy,0,I confirm that my participation has been explained and consent to taking part in the experiment,relative,1,undefined,undefined,1,0,1,0,83,83,0,0,0,83,0,0,0,0,0,0,NA,0,83,0,0,0,NA,83,404,306,04/03/2018 11:08,A template containing a practice and an experimental phase,96,no,800,1280,15.72330189,yes,Exp_10_working.osexp,C:\Users\russe\Dropbox,no,mono,no,32,no,#ffffff,no,I confirm that my participation has been explained and consent to taking part in the experiment,NA,2,yes,800,ee,droid,67,15,8,C:/Users/russe/Dropbox/Exp_10/subject-2.csv,droid,Jazzy James,3.1.7,0,8,NA,1,NA,1,1,NA,8,473,NA,2414,NA,558,885,NA,473,2,legacy,Male,1024,2,48000,-16,experiment,2,even,droid,5018,NA,NA,71100,71577,13729,16704,NA,71102,27887,NA,NA,NA,NA,2377,NA,NA,71577,NA,16145,27002,NA,71102,Runtime for Android template,65,33303,68,0.16667,no,1280,0.017221365
95.65217391,95.65217391,20,488.826087,488.826087,#000000,no,1,droid,legacy,legacy,0,I confirm that my participation has been explained and consent to taking part in the experiment,relative,1,undefined,undefined,1,0,1,0,84,84,0,0,0,84,0,0,0,0,0,0,NA,0,84,0,0,0,NA,84,509,12,04/03/2018 11:08,A template containing a practice and an experimental phase,96,no,800,1280,15.72330189,yes,Exp_10_working.osexp,C:\Users\russe\Dropbox,no,mono,no,32,no,#ffffff,no,I confirm that my participation has been explained and consent to taking part in the experiment,NA,1,yes,800,eb,droid,68,15,3,C:/Users/russe/Dropbox/Exp_10/subject-2.csv,droid,Jazzy James,3.1.7,0,3,NA,1,NA,1,1,NA,3,426,NA,2414,NA,558,885,NA,426,2,legacy,Male,1024,2,48000,-16,experiment,2,even,droid,5018,NA,NA,71899,72329,13729,16704,NA,71901,27887,NA,NA,NA,NA,2377,NA,NA,72329,NA,16145,27002,NA,71901,Runtime for Android template,66,33729,69,0.08333,no,1280,-0.56951199
95.71428571,95.71428571,20,488.1714286,488.1714286,#000000,no,1,droid,legacy,legacy,0,I confirm that my participation has been explained and consent to taking part in the experiment,relative,1,undefined,undefined,1,0,1,0,85,85,0,0,0,85,0,0,0,0,0,0,NA,0,85,0,0,0,NA,85,377,296,04/03/2018 11:08,A template containing a practice and an experimental phase,96,no,800,1280,15.72330189,yes,Exp_10_working.osexp,C:\Users\russe\Dropbox,no,mono,no,32,no,#ffffff,no,I confirm that my participation has been explained and consent to taking part in the experiment,NA,1,yes,800,be,droid,69,15,8,C:/Users/russe/Dropbox/Exp_10/subject-2.csv,droid,Jazzy James,3.1.7,0,8,NA,1,NA,1,1,NA,8,443,NA,2414,NA,558,885,NA,443,2,legacy,Male,1024,2,48000,-16,experiment,2,even,droid,5018,NA,NA,72395,72841,13729,16704,NA,72396,27887,NA,NA,NA,NA,2377,NA,NA,72841,NA,16145,27002,NA,72396,Runtime for Android template,67,34172,70,0.125,no,1280,-0.357289287
95.77464789,95.77464789,20,487.7323944,487.7323944,#000000,no,1,droid,legacy,legacy,0,I confirm that my participation has been explained and consent to taking part in the experiment,relative,1,undefined,undefined,1,0,1,0,86,86,0,0,0,86,0,0,0,0,0,0,NA,0,86,0,0,0,NA,86,539,104,04/03/2018 11:08,A template containing a practice and an experimental phase,96,no,800,1280,15.72330189,yes,Exp_10_working.osexp,C:\Users\russe\Dropbox,no,mono,no,32,no,#ffffff,no,I confirm that my participation has been explained and consent to taking part in the experiment,NA,2,yes,800,bb,droid,70,15,3,C:/Users/russe/Dropbox/Exp_10/subject-2.csv,droid,Jazzy James,3.1.7,0,3,NA,1,NA,1,1,NA,3,457,NA,2414,NA,558,885,NA,457,2,legacy,Male,1024,2,48000,-16,experiment,2,even,droid,5018,NA,NA,72916,73377,13729,16704,NA,72918,27887,NA,NA,NA,NA,2377,NA,NA,73377,NA,16145,27002,NA,72918,Runtime for Android template,68,34629,71,0.25,no,1280,-0.182517649
95.83333333,95.83333333,20,487.1666667,487.1666667,#000000,no,1,droid,legacy,legacy,0,I confirm that my participation has been explained and consent to taking part in the experiment,relative,1,undefined,undefined,1,0,1,0,87,87,0,0,0,87,0,0,0,0,0,0,NA,0,87,0,0,0,NA,87,734,85,04/03/2018 11:08,A template containing a practice and an experimental phase,96,no,800,1280,15.72330189,yes,Exp_10_working.osexp,C:\Users\russe\Dropbox,no,mono,no,32,no,#ffffff,no,I confirm that my participation has been explained and consent to taking part in the experiment,NA,1,yes,800,bc,droid,71,15,4,C:/Users/russe/Dropbox/Exp_10/subject-2.csv,droid,Jazzy James,3.1.7,0,4,NA,1,NA,1,1,NA,4,447,NA,2414,NA,558,885,NA,447,2,legacy,Male,1024,2,48000,-16,experiment,2,even,droid,5018,NA,NA,73446,73896,13729,16704,NA,73447,27887,NA,NA,NA,NA,2377,NA,NA,73897,NA,16145,27002,NA,73448,Runtime for Android template,69,35076,72,0.125,no,1280,-0.307354533
95.89041096,95.89041096,20,487.0273973,487.0273973,#000000,no,1,droid,legacy,legacy,0,I confirm that my participation has been explained and consent to taking part in the experiment,relative,1,undefined,undefined,1,0,1,0,88,88,0,0,0,88,0,0,0,0,0,0,NA,0,88,0,0,0,NA,88,734,604,04/03/2018 11:08,A template containing a practice and an experimental phase,96,no,800,1280,15.72330189,yes,Exp_10_working.osexp,C:\Users\russe\Dropbox,no,mono,no,32,no,#ffffff,no,I confirm that my participation has been explained and consent to taking part in the experiment,NA,3,yes,800,co,droid,72,15,22,C:/Users/russe/Dropbox/Exp_10/subject-2.csv,droid,Jazzy James,3.1.7,0,22,NA,1,NA,1,1,NA,22,477,NA,2414,NA,558,885,NA,477,2,legacy,Male,1024,2,48000,-16,experiment,2,even,droid,5018,NA,NA,73999,74480,13729,16704,NA,74001,27887,NA,NA,NA,NA,2377,NA,NA,74480,NA,16145,27002,NA,74001,Runtime for Android template,70,35553,73,0.3,no,1280,0.067156119
95.94594595,95.94594595,20,489.9864865,489.9864865,#000000,no,1,droid,legacy,legacy,0,I confirm that my participation has been explained and consent to taking part in the experiment,relative,1,undefined,undefined,1,0,1,0,89,89,0,0,0,89,0,0,0,0,0,0,NA,0,89,0,0,0,NA,89,328,110,04/03/2018 11:08,A template containing a practice and an experimental phase,96,no,800,1280,15.72330189,yes,Exp_10_working.osexp,C:\Users\russe\Dropbox,no,mono,no,32,no,#ffffff,no,I confirm that my participation has been explained and consent to taking part in the experiment,NA,4,yes,800,oa,droid,73,15,2,C:/Users/russe/Dropbox/Exp_10/subject-2.csv,droid,Jazzy James,3.1.7,0,2,NA,1,NA,1,1,NA,2,706,NA,2414,NA,558,885,NA,706,2,legacy,Male,1024,2,48000,-16,experiment,2,even,droid,5018,NA,NA,74586,75297,13729,16704,NA,74588,27887,NA,NA,NA,NA,2377,NA,NA,75297,NA,16145,27002,NA,74588,Runtime for Android template,71,36259,74,0.25,no,1280,2.925920764
96,96,20,494.2266667,494.2266667,#000000,no,1,droid,legacy,legacy,0,I confirm that my participation has been explained and consent to taking part in the experiment,relative,1,undefined,undefined,1,0,1,0,90,90,0,0,0,90,0,0,0,0,0,0,NA,0,90,0,0,0,NA,90,724,684,04/03/2018 11:08,A template containing a practice and an experimental phase,96,no,800,1280,15.72330189,yes,Exp_10_working.osexp,C:\Users\russe\Dropbox,no,mono,no,32,no,#ffffff,no,I confirm that my participation has been explained and consent to taking part in the experiment,NA,2,yes,800,ao,droid,74,15,22,C:/Users/russe/Dropbox/Exp_10/subject-2.csv,droid,Jazzy James,3.1.7,0,22,NA,1,NA,1,1,NA,22,808,NA,2414,NA,558,885,NA,808,2,legacy,Male,1024,2,48000,-16,experiment,2,even,droid,5018,NA,NA,75388,76201,13729,16704,NA,75389,27887,NA,NA,NA,NA,2377,NA,NA,76201,NA,16145,27002,NA,75390,Runtime for Android template,72,37067,75,0.33333,no,1280,4.199256982
96.05263158,96.05263158,20,494.5657895,494.5657895,#000000,no,1,droid,legacy,legacy,0,I confirm that my participation has been explained and consent to taking part in the experiment,relative,1,undefined,undefined,1,0,1,0,91,91,0,0,0,91,0,0,0,0,0,0,NA,0,91,0,0,0,NA,91,759,118,04/03/2018 11:08,A template containing a practice and an experimental phase,96,no,800,1280,15.72330189,yes,Exp_10_working.osexp,C:\Users\russe\Dropbox,no,mono,no,32,no,#ffffff,no,I confirm that my participation has been explained and consent to taking part in the experiment,NA,2,yes,800,oc,droid,75,15,4,C:/Users/russe/Dropbox/Exp_10/subject-2.csv,droid,Jazzy James,3.1.7,0,4,NA,1,NA,1,1,NA,4,520,NA,2414,NA,558,885,NA,520,2,legacy,Male,1024,2,48000,-16,experiment,2,even,droid,5018,NA,NA,76309,76833,13729,16704,NA,76311,27887,NA,NA,NA,NA,2377,NA,NA,76833,NA,16145,27002,NA,76311,Runtime for Android template,73,37587,76,0.125,no,1280,0.60395472
96.1038961,96.1038961,20,494.4545455,494.4545455,#000000,no,1,droid,legacy,legacy,0,I confirm that my participation has been explained and consent to taking part in the experiment,relative,1,undefined,undefined,1,0,1,0,92,92,0,0,0,92,0,0,0,0,0,0,NA,0,92,0,0,0,NA,92,761,478,04/03/2018 11:08,A template containing a practice and an experimental phase,96,no,800,1280,15.72330189,yes,Exp_10_working.osexp,C:\Users\russe\Dropbox,no,mono,no,32,no,#ffffff,no,I confirm that my participation has been explained and consent to taking part in the experiment,NA,1,yes,800,ck,droid,76,15,16,C:/Users/russe/Dropbox/Exp_10/subject-2.csv,droid,Jazzy James,3.1.7,0,16,NA,1,NA,1,1,NA,16,486,NA,2414,NA,558,885,NA,486,2,legacy,Male,1024,2,48000,-16,experiment,2,even,droid,5018,NA,NA,76910,77400,13729,16704,NA,76911,27887,NA,NA,NA,NA,2377,NA,NA,77400,NA,16145,27002,NA,76912,Runtime for Android template,74,38073,77,0.1,no,1280,0.179509315
96.15384615,96.15384615,20,493.5641026,493.5641026,#000000,no,1,droid,legacy,legacy,0,I confirm that my participation has been explained and consent to taking part in the experiment,relative,1,undefined,undefined,1,0,1,0,93,93,0,0,0,93,0,0,0,0,0,0,NA,0,93,0,0,0,NA,93,734,351,04/03/2018 11:08,A template containing a practice and an experimental phase,96,no,800,1280,15.72330189,yes,Exp_10_working.osexp,C:\Users\russe\Dropbox,no,mono,no,32,no,#ffffff,no,I confirm that my participation has been explained and consent to taking part in the experiment,NA,1,yes,800,kg,droid,77,15,10,C:/Users/russe/Dropbox/Exp_10/subject-2.csv,droid,Jazzy James,3.1.7,0,10,NA,1,NA,1,1,NA,10,425,NA,2414,NA,558,885,NA,425,2,legacy,Male,1024,2,48000,-16,experiment,2,even,droid,5018,NA,NA,77484,77913,13729,16704,NA,77485,27887,NA,NA,NA,NA,2377,NA,NA,77913,NA,16145,27002,NA,77485,Runtime for Android template,75,38498,78,0.125,no,1280,-0.581995678
96.20253165,96.20253165,20,492.7594937,492.7594937,#000000,no,1,droid,legacy,legacy,0,I confirm that my participation has been explained and consent to taking part in the experiment,relative,1,undefined,undefined,1,0,1,0,94,94,0,0,0,94,0,0,0,0,0,0,NA,0,94,0,0,0,NA,94,578,656,04/03/2018 11:08,A template containing a practice and an experimental phase,96,no,800,1280,15.72330189,yes,Exp_10_working.osexp,C:\Users\russe\Dropbox,no,mono,no,32,no,#ffffff,no,I confirm that my participation has been explained and consent to taking part in the experiment,NA,1,yes,800,gn,droid,78,15,21,C:/Users/russe/Dropbox/Exp_10/subject-2.csv,droid,Jazzy James,3.1.7,0,21,NA,1,NA,1,1,NA,21,430,NA,2414,NA,558,885,NA,430,2,legacy,Male,1024,2,48000,-16,experiment,2,even,droid,5018,NA,NA,78366,78800,13729,16704,NA,78368,27887,NA,NA,NA,NA,2377,NA,NA,78801,NA,16145,27002,NA,78368,Runtime for Android template,76,38928,79,0.2,no,1280,-0.519577236
96.25,96.25,20,492.65,492.65,#000000,no,1,droid,legacy,legacy,0,I confirm that my participation has been explained and consent to taking part in the experiment,relative,1,undefined,undefined,1,0,1,0,95,95,0,0,0,95,0,0,0,0,0,0,NA,0,95,0,0,0,NA,95,969,256,04/03/2018 11:08,A template containing a practice and an experimental phase,96,no,800,1280,15.72330189,yes,Exp_10_working.osexp,C:\Users\russe\Dropbox,no,mono,no,32,no,#ffffff,no,I confirm that my participation has been explained and consent to taking part in the experiment,NA,4,yes,800,nh,droid,79,15,11,C:/Users/russe/Dropbox/Exp_10/subject-2.csv,droid,Jazzy James,3.1.7,0,11,NA,1,NA,1,1,NA,11,484,NA,2414,NA,558,885,NA,484,2,legacy,Male,1024,2,48000,-16,experiment,2,even,droid,5018,NA,NA,78912,79400,13729,16704,NA,78914,27887,NA,NA,NA,NA,2377,NA,NA,79400,NA,16145,27002,NA,78914,Runtime for Android template,77,39412,80,0.8,no,1280,0.154541938
96.2962963,96.2962963,20,492.1604938,492.1604938,#000000,no,1,droid,legacy,legacy,0,I confirm that my participation has been explained and consent to taking part in the experiment,relative,1,undefined,undefined,1,0,1,0,96,96,0,0,0,96,0,0,0,0,0,0,NA,0,96,0,0,0,NA,96,954,292,04/03/2018 11:08,A template containing a practice and an experimental phase,96,no,800,1280,15.72330189,yes,Exp_10_working.osexp,C:\Users\russe\Dropbox,no,mono,no,32,no,#ffffff,no,I confirm that my participation has been explained and consent to taking part in the experiment,NA,1,yes,800,hn,droid,80,15,11,C:/Users/russe/Dropbox/Exp_10/subject-2.csv,droid,Jazzy James,3.1.7,0,11,NA,1,NA,1,1,NA,11,453,NA,2414,NA,558,885,NA,453,2,legacy,Male,1024,2,48000,-16,experiment,2,even,droid,5018,NA,NA,79600,80057,13729,16704,NA,79602,27887,NA,NA,NA,NA,2377,NA,NA,80057,NA,16145,27002,NA,79602,Runtime for Android template,78,39865,81,0.07692,no,1280,-0.232452403
96.34146341,96.34146341,20,491.5243902,491.5243902,#000000,no,1,droid,legacy,legacy,0,I confirm that my participation has been explained and consent to taking part in the experiment,relative,1,undefined,undefined,1,0,1,0,97,97,0,0,0,97,0,0,0,0,0,0,NA,0,97,0,0,0,NA,97,541,718,04/03/2018 11:08,A template containing a practice and an experimental phase,96,no,800,1280,15.72330189,yes,Exp_10_working.osexp,C:\Users\russe\Dropbox,no,mono,no,32,no,#ffffff,no,I confirm that my participation has been explained and consent to taking part in the experiment,NA,4,yes,800,nh,droid,81,15,21,C:/Users/russe/Dropbox/Exp_10/subject-2.csv,droid,Jazzy James,3.1.7,0,21,NA,1,NA,1,1,NA,21,440,NA,2414,NA,558,885,NA,440,2,legacy,Male,1024,2,48000,-16,experiment,2,even,droid,5018,NA,NA,80173,80617,13729,16704,NA,80175,27887,NA,NA,NA,NA,2377,NA,NA,80617,NA,16145,27002,NA,80175,Runtime for Android template,79,40305,82,0.8,no,1280,-0.394740352
96.38554217,96.38554217,20,490.6746988,490.6746988,#000000,no,1,droid,legacy,legacy,0,I confirm that my participation has been explained and consent to taking part in the experiment,relative,1,undefined,undefined,1,0,1,0,98,98,0,0,0,98,0,0,0,0,0,0,NA,0,98,0,0,0,NA,98,878,695,04/03/2018 11:08,A template containing a practice and an experimental phase,96,no,800,1280,15.72330189,yes,Exp_10_working.osexp,C:\Users\russe\Dropbox,no,mono,no,32,no,#ffffff,no,I confirm that my participation has been explained and consent to taking part in the experiment,NA,1,yes,800,hp,droid,82,15,23,C:/Users/russe/Dropbox/Exp_10/subject-2.csv,droid,Jazzy James,3.1.7,0,23,NA,1,NA,1,1,NA,23,421,NA,2414,NA,558,885,NA,421,2,legacy,Male,1024,2,48000,-16,experiment,2,even,droid,5018,NA,NA,80848,81273,13729,16704,NA,80850,27887,NA,NA,NA,NA,2377,NA,NA,81273,NA,16145,27002,NA,80850,Runtime for Android template,80,40726,83,0.07692,no,1280,-0.631930432
96.42857143,96.42857143,20,491.1071429,491.1071429,#000000,no,1,droid,legacy,legacy,0,I confirm that my participation has been explained and consent to taking part in the experiment,relative,1,undefined,undefined,1,0,1,0,99,99,0,0,0,99,0,0,0,0,0,0,NA,0,99,0,0,0,NA,99,398,654,04/03/2018 11:08,A template containing a practice and an experimental phase,96,no,800,1280,15.72330189,yes,Exp_10_working.osexp,C:\Users\russe\Dropbox,no,mono,no,32,no,#ffffff,no,I confirm that my participation has been explained and consent to taking part in the experiment,NA,1,yes,800,pm,droid,83,15,20,C:/Users/russe/Dropbox/Exp_10/subject-2.csv,droid,Jazzy James,3.1.7,0,20,NA,1,NA,1,1,NA,20,527,NA,2414,NA,558,885,NA,527,2,legacy,Male,1024,2,48000,-16,experiment,2,even,droid,5018,NA,NA,81405,81936,13729,16704,NA,81407,27887,NA,NA,NA,NA,2377,NA,NA,81937,NA,16145,27002,NA,81407,Runtime for Android template,81,41253,84,0.2,no,1280,0.691340539
96.47058824,96.47058824,20,491.2941176,491.2941176,#000000,no,1,droid,legacy,legacy,0,I confirm that my participation has been explained and consent to taking part in the experiment,relative,1,undefined,undefined,1,0,1,0,100,100,0,0,0,100,0,0,0,0,0,0,NA,0,100,0,0,0,NA,100,1023,309,04/03/2018 11:08,A template containing a practice and an experimental phase,96,no,800,1280,15.72330189,yes,Exp_10_working.osexp,C:\Users\russe\Dropbox,no,mono,no,32,no,#ffffff,no,I confirm that my participation has been explained and consent to taking part in the experiment,NA,1,yes,800,mh,droid,84,15,11,C:/Users/russe/Dropbox/Exp_10/subject-2.csv,droid,Jazzy James,3.1.7,0,11,NA,1,NA,1,1,NA,11,507,NA,2414,NA,558,885,NA,507,2,legacy,Male,1024,2,48000,-16,experiment,2,even,droid,5018,NA,NA,82059,82569,13729,16704,NA,82060,27887,NA,NA,NA,NA,2377,NA,NA,82569,NA,16145,27002,NA,82060,Runtime for Android template,82,41760,85,0.11111,no,1280,0.441666771
96.51162791,96.51162791,20,490.627907,490.627907,#000000,no,1,droid,legacy,legacy,0,I confirm that my participation has been explained and consent to taking part in the experiment,relative,1,undefined,undefined,1,0,1,0,101,101,0,0,0,101,0,0,0,0,0,0,NA,0,101,0,0,0,NA,101,525,534,04/03/2018 11:08,A template containing a practice and an experimental phase,96,no,800,1280,15.72330189,yes,Exp_10_working.osexp,C:\Users\russe\Dropbox,no,mono,no,32,no,#ffffff,no,I confirm that my participation has been explained and consent to taking part in the experiment,NA,2,yes,800,hj,droid,85,15,15,C:/Users/russe/Dropbox/Exp_10/subject-2.csv,droid,Jazzy James,3.1.7,0,15,NA,1,NA,1,1,NA,15,434,NA,2414,NA,558,885,NA,434,2,legacy,Male,1024,2,48000,-16,experiment,2,even,droid,5018,NA,NA,82706,83145,13729,16704,NA,82708,27887,NA,NA,NA,NA,2377,NA,NA,83145,NA,16145,27002,NA,82708,Runtime for Android template,83,42194,86,0.15385,no,1280,-0.469642483
96.55172414,96.55172414,20,489.3103448,489.3103448,#000000,no,1,droid,legacy,legacy,0,I confirm that my participation has been explained and consent to taking part in the experiment,relative,1,undefined,undefined,1,0,1,0,102,102,0,0,0,102,0,0,0,0,0,0,NA,0,102,0,0,0,NA,102,1032,277,04/03/2018 11:08,A template containing a practice and an experimental phase,96,no,800,1280,15.72330189,yes,Exp_10_working.osexp,C:\Users\russe\Dropbox,no,mono,no,32,no,#ffffff,no,I confirm that my participation has been explained and consent to taking part in the experiment,NA,1,yes,800,jh,droid,86,15,11,C:/Users/russe/Dropbox/Exp_10/subject-2.csv,droid,Jazzy James,3.1.7,0,11,NA,1,NA,1,1,NA,11,376,NA,2414,NA,558,885,NA,376,2,legacy,Male,1024,2,48000,-16,experiment,2,even,droid,5018,NA,NA,83372,83752,13729,16704,NA,83374,27887,NA,NA,NA,NA,2377,NA,NA,83752,NA,16145,27002,NA,83374,Runtime for Android template,84,42570,87,0.125,no,1280,-1.19369641
96.59090909,96.59090909,20,488.5681818,488.5681818,#000000,no,1,droid,legacy,legacy,0,I confirm that my participation has been explained and consent to taking part in the experiment,relative,1,undefined,undefined,1,0,1,0,103,103,0,0,0,103,0,0,0,0,0,0,NA,0,103,0,0,0,NA,103,758,296,04/03/2018 11:08,A template containing a practice and an experimental phase,96,no,800,1280,15.72330189,yes,Exp_10_working.osexp,C:\Users\russe\Dropbox,no,mono,no,32,no,#ffffff,no,I confirm that my participation has been explained and consent to taking part in the experiment,NA,2,yes,800,hg,droid,87,15,10,C:/Users/russe/Dropbox/Exp_10/subject-2.csv,droid,Jazzy James,3.1.7,0,10,NA,1,NA,1,1,NA,10,424,NA,2414,NA,558,885,NA,424,2,legacy,Male,1024,2,48000,-16,experiment,2,even,droid,5018,NA,NA,83933,84361,13729,16704,NA,83935,27887,NA,NA,NA,NA,2377,NA,NA,84361,NA,16145,27002,NA,83935,Runtime for Android template,85,42994,88,0.15385,no,1280,-0.594479367
96.62921348,96.62921348,20,487.6966292,487.6966292,#000000,no,1,droid,legacy,legacy,0,I confirm that my participation has been explained and consent to taking part in the experiment,relative,1,undefined,undefined,1,0,1,0,104,104,0,0,0,104,0,0,0,0,0,0,NA,0,104,0,0,0,NA,104,585,514,04/03/2018 11:08,A template containing a practice and an experimental phase,96,no,800,1280,15.72330189,yes,Exp_10_working.osexp,C:\Users\russe\Dropbox,no,mono,no,32,no,#ffffff,no,I confirm that my participation has been explained and consent to taking part in the experiment,NA,1,yes,800,gj,droid,88,15,15,C:/Users/russe/Dropbox/Exp_10/subject-2.csv,droid,Jazzy James,3.1.7,0,15,NA,1,NA,1,1,NA,15,411,NA,2414,NA,558,885,NA,411,2,legacy,Male,1024,2,48000,-16,experiment,2,even,droid,5018,NA,NA,84434,84849,13729,16704,NA,84436,27887,NA,NA,NA,NA,2377,NA,NA,84849,NA,16145,27002,NA,84436,Runtime for Android template,86,43405,89,0.2,no,1280,-0.756767316
96.66666667,96.66666667,20,487.1,487.1,#000000,no,1,droid,legacy,legacy,0,I confirm that my participation has been explained and consent to taking part in the experiment,relative,1,undefined,undefined,1,0,1,0,105,105,0,0,0,105,0,0,0,0,0,0,NA,0,105,0,0,0,NA,105,753,669,04/03/2018 11:08,A template containing a practice and an experimental phase,96,no,800,1280,15.72330189,yes,Exp_10_working.osexp,C:\Users\russe\Dropbox,no,mono,no,32,no,#ffffff,no,I confirm that my participation has been explained and consent to taking part in the experiment,NA,2,yes,800,jo,droid,89,15,22,C:/Users/russe/Dropbox/Exp_10/subject-2.csv,droid,Jazzy James,3.1.7,0,22,NA,1,NA,1,1,NA,22,434,NA,2414,NA,558,885,NA,434,2,legacy,Male,1024,2,48000,-16,experiment,2,even,droid,5018,NA,NA,84907,85345,13729,16704,NA,84909,27887,NA,NA,NA,NA,2377,NA,NA,85345,NA,16145,27002,NA,84909,Runtime for Android template,87,43839,90,0.25,no,1280,-0.469642483
