acc,accuracy,age,average_response_time,avg_rt,background,bidi,block,canvas_backend,clock_backend,color_backend,compensation,consent,coordinates,correct,correct_Instructions,correct_new_sketchpad,correct_new_touch_response_4,count_Age,count_Break,count_Consent,count_Experimental_sequence,count_ISI,count_Instructions,count_Prac_block,count_Sex,count_Test_pad,count_block_1,count_block_2,count_block_3,count_block_4,count_block_5,count_experiment,count_feedback,count_incongruent_block,count_logger,count_new_reset_feedback,count_new_sketchpad,count_new_sketchpad_1,count_new_sketchpad_3,count_new_touch_response_4,cursor_x,cursor_y,datetime,description,device_dpi,device_is_tablet,device_resolution_height,device_resolution_width,device_screen_diag,disable_garbage_collection,experiment_file,experiment_path,font_bold,font_family,font_italic,font_size,font_underline,foreground,form_clicks,form_response,form_var,freq,fullscreen,height,key,keyboard_backend,live_row,live_row_Prac_block,loc,logfile,mouse_backend,opensesame_codename,opensesame_version,repeat_cycle,response,response_Break,response_Instructions,response_feedback,response_new_sketchpad,response_new_sketchpad_1,response_new_sketchpad_3,response_new_touch_response_4,response_time,response_time_Break,response_time_Instructions,response_time_feedback,response_time_new_sketchpad,response_time_new_sketchpad_1,response_time_new_sketchpad_3,response_time_new_touch_response_4,round_decimals,sampler_backend,sex,sound_buf_size,sound_channels,sound_freq,sound_sample_size,start,subject_nr,subject_parity,synth_backend,time_Age,time_Break,time_Consent,time_Experimental_sequence,time_ISI,time_Instructions,time_Prac_block,time_Sex,time_Test_pad,time_block_1,time_block_2,time_block_3,time_block_4,time_block_5,time_experiment,time_feedback,time_incongruent_block,time_logger,time_new_reset_feedback,time_new_sketchpad,time_new_sketchpad_1,time_new_sketchpad_3,time_new_touch_response_4,title,total_correct,total_response_time,total_responses,tp,uniform_coordinates,width,z
100,100,19,800,800,#000000,no,NA,droid,legacy,legacy,0,I confirm that my participation has been explained and consent to taking part in the experiment,relative,1,undefined,undefined,1,0,1,0,0,0,0,0,0,0,0,0,0,0,0,0,NA,0,0,0,0,0,NA,0,512,503,04/03/2018 10:34,A template containing a practice and an experimental phase,96,no,800,1280,15.72330189,yes,Exp_10_working.osexp,C:\Users\russe\Dropbox,no,mono,no,32,no,#ffffff,no,I confirm that my participation has been explained and consent to taking part in the experiment,NA,NA,yes,800,NA,droid,0,0,15,C:/Users/russe/Dropbox/Exp_10/subject-1.csv,droid,Jazzy James,3.1.7,0,15,NA,1,NA,1,NA,NA,15,800,NA,899,NA,710,NA,NA,800,2,legacy,Female,1024,2,48000,-16,experiment,1,odd,droid,4391,NA,NA,10037,10840,8404,10015,NA,10038,NA,NA,NA,NA,NA,2368,NA,NA,10840,NA,9304,NA,NA,10038,Runtime for Android template,1,800,1,NA,no,1280,4.237550681
100,100,19,591,591,#000000,no,NA,droid,legacy,legacy,0,I confirm that my participation has been explained and consent to taking part in the experiment,relative,1,undefined,undefined,1,0,1,0,1,1,0,0,0,1,0,0,0,0,0,0,NA,0,1,0,0,0,NA,1,755,321,04/03/2018 10:34,A template containing a practice and an experimental phase,96,no,800,1280,15.72330189,yes,Exp_10_working.osexp,C:\Users\russe\Dropbox,no,mono,no,32,no,#ffffff,no,I confirm that my participation has been explained and consent to taking part in the experiment,NA,NA,yes,800,NA,droid,1,1,10,C:/Users/russe/Dropbox/Exp_10/subject-1.csv,droid,Jazzy James,3.1.7,0,10,NA,1,NA,1,NA,NA,10,382,NA,899,NA,710,NA,NA,382,2,legacy,Female,1024,2,48000,-16,experiment,1,odd,droid,4391,NA,NA,11102,11488,8404,10015,NA,11104,NA,NA,NA,NA,NA,2368,NA,NA,11488,NA,9304,NA,NA,11104,Runtime for Android template,2,1182,2,NA,no,1280,-1.012855687
100,100,19,542.3333333,542.3333333,#000000,no,NA,droid,legacy,legacy,0,I confirm that my participation has been explained and consent to taking part in the experiment,relative,1,undefined,undefined,1,0,1,0,2,2,0,0,0,2,0,0,0,0,0,0,NA,0,2,0,0,0,NA,2,468,73,04/03/2018 10:34,A template containing a practice and an experimental phase,96,no,800,1280,15.72330189,yes,Exp_10_working.osexp,C:\Users\russe\Dropbox,no,mono,no,32,no,#ffffff,no,I confirm that my participation has been explained and consent to taking part in the experiment,NA,NA,yes,800,NA,droid,2,2,3,C:/Users/russe/Dropbox/Exp_10/subject-1.csv,droid,Jazzy James,3.1.7,0,3,NA,1,NA,1,NA,NA,3,445,NA,899,NA,710,NA,NA,445,2,legacy,Female,1024,2,48000,-16,experiment,1,odd,droid,4391,NA,NA,11808,12256,8404,10015,NA,11809,NA,NA,NA,NA,NA,2368,NA,NA,12256,NA,9304,NA,NA,11809,Runtime for Android template,3,1627,3,NA,no,1280,-0.221526497
100,100,19,541.5,541.5,#000000,no,NA,droid,legacy,legacy,0,I confirm that my participation has been explained and consent to taking part in the experiment,relative,1,undefined,undefined,1,0,1,0,3,3,0,0,0,3,0,0,0,0,0,0,NA,0,3,0,0,0,NA,3,696,697,04/03/2018 10:34,A template containing a practice and an experimental phase,96,no,800,1280,15.72330189,yes,Exp_10_working.osexp,C:\Users\russe\Dropbox,no,mono,no,32,no,#ffffff,no,I confirm that my participation has been explained and consent to taking part in the experiment,NA,NA,yes,800,NA,droid,3,3,22,C:/Users/russe/Dropbox/Exp_10/subject-1.csv,droid,Jazzy James,3.1.7,0,22,NA,1,NA,1,NA,NA,22,539,NA,899,NA,710,NA,NA,539,2,legacy,Female,1024,2,48000,-16,experiment,1,odd,droid,4391,NA,NA,12346,12888,8404,10015,NA,12347,NA,NA,NA,NA,NA,2368,NA,NA,12888,NA,9304,NA,NA,12347,Runtime for Android template,4,2166,4,NA,no,1280,0.959186896
100,100,19,516,516,#000000,no,NA,droid,legacy,legacy,0,I confirm that my participation has been explained and consent to taking part in the experiment,relative,1,undefined,undefined,1,0,1,0,4,4,0,0,0,4,0,0,0,0,0,0,NA,0,4,0,0,0,NA,4,1013,513,04/03/2018 10:34,A template containing a practice and an experimental phase,96,no,800,1280,15.72330189,yes,Exp_10_working.osexp,C:\Users\russe\Dropbox,no,mono,no,32,no,#ffffff,no,I confirm that my participation has been explained and consent to taking part in the experiment,NA,NA,yes,800,NA,droid,4,4,17,C:/Users/russe/Dropbox/Exp_10/subject-1.csv,droid,Jazzy James,3.1.7,0,17,NA,1,NA,1,NA,NA,17,414,NA,899,NA,710,NA,NA,414,2,legacy,Female,1024,2,48000,-16,experiment,1,odd,droid,4391,NA,NA,12999,13416,8404,10015,NA,13001,NA,NA,NA,NA,NA,2368,NA,NA,13416,NA,9304,NA,NA,13001,Runtime for Android template,5,2580,5,NA,no,1280,-0.610910702
100,100,19,521,521,#000000,no,NA,droid,legacy,legacy,0,I confirm that my participation has been explained and consent to taking part in the experiment,relative,1,undefined,undefined,1,0,1,0,5,5,0,0,0,5,0,0,0,0,0,0,NA,0,5,0,0,0,NA,5,323,109,04/03/2018 10:34,A template containing a practice and an experimental phase,96,no,800,1280,15.72330189,yes,Exp_10_working.osexp,C:\Users\russe\Dropbox,no,mono,no,32,no,#ffffff,no,I confirm that my participation has been explained and consent to taking part in the experiment,NA,NA,yes,800,NA,droid,5,5,2,C:/Users/russe/Dropbox/Exp_10/subject-1.csv,droid,Jazzy James,3.1.7,0,2,NA,1,NA,1,NA,NA,2,546,NA,899,NA,710,NA,NA,546,2,legacy,Female,1024,2,48000,-16,experiment,1,odd,droid,4391,NA,NA,13595,14144,8404,10015,NA,13597,NA,NA,NA,NA,NA,2368,NA,NA,14144,NA,9304,NA,NA,13597,Runtime for Android template,6,3126,6,NA,no,1280,1.047112362
100,100,19,509.4285714,509.4285714,#000000,no,NA,droid,legacy,legacy,0,I confirm that my participation has been explained and consent to taking part in the experiment,relative,1,undefined,undefined,1,0,1,0,6,6,0,0,0,6,0,0,0,0,0,0,NA,0,6,0,0,0,NA,6,780,471,04/03/2018 10:34,A template containing a practice and an experimental phase,96,no,800,1280,15.72330189,yes,Exp_10_working.osexp,C:\Users\russe\Dropbox,no,mono,no,32,no,#ffffff,no,I confirm that my participation has been explained and consent to taking part in the experiment,NA,NA,yes,800,NA,droid,6,6,16,C:/Users/russe/Dropbox/Exp_10/subject-1.csv,droid,Jazzy James,3.1.7,0,16,NA,1,NA,1,NA,NA,16,440,NA,899,NA,710,NA,NA,440,2,legacy,Female,1024,2,48000,-16,experiment,1,odd,droid,4391,NA,NA,14244,14688,8404,10015,NA,14246,NA,NA,NA,NA,NA,2368,NA,NA,14688,NA,9304,NA,NA,14246,Runtime for Android template,7,3566,7,NA,no,1280,-0.284330401
100,100,19,499.375,499.375,#000000,no,NA,droid,legacy,legacy,0,I confirm that my participation has been explained and consent to taking part in the experiment,relative,1,undefined,undefined,1,0,1,0,7,7,0,0,0,7,0,0,0,0,0,0,NA,0,7,0,0,0,NA,7,381,225,04/03/2018 10:34,A template containing a practice and an experimental phase,96,no,800,1280,15.72330189,yes,Exp_10_working.osexp,C:\Users\russe\Dropbox,no,mono,no,32,no,#ffffff,no,I confirm that my participation has been explained and consent to taking part in the experiment,NA,NA,yes,800,NA,droid,7,7,8,C:/Users/russe/Dropbox/Exp_10/subject-1.csv,droid,Jazzy James,3.1.7,0,8,NA,1,NA,1,NA,NA,8,429,NA,899,NA,710,NA,NA,429,2,legacy,Female,1024,2,48000,-16,experiment,1,odd,droid,4391,NA,NA,14855,15288,8404,10015,NA,14857,NA,NA,NA,NA,NA,2368,NA,NA,15288,NA,9304,NA,NA,14857,Runtime for Android template,8,3995,8,NA,no,1280,-0.42249899
100,100,19,495.4444444,495.4444444,#000000,no,NA,droid,legacy,legacy,0,I confirm that my participation has been explained and consent to taking part in the experiment,relative,1,undefined,undefined,1,0,1,0,8,8,0,0,0,8,0,0,0,0,0,0,NA,0,8,0,0,0,NA,8,737,175,04/03/2018 10:34,A template containing a practice and an experimental phase,96,no,800,1280,15.72330189,yes,Exp_10_working.osexp,C:\Users\russe\Dropbox,no,mono,no,32,no,#ffffff,no,I confirm that my participation has been explained and consent to taking part in the experiment,NA,NA,yes,800,NA,droid,8,8,4,C:/Users/russe/Dropbox/Exp_10/subject-1.csv,droid,Jazzy James,3.1.7,0,4,NA,1,NA,1,NA,NA,4,464,NA,899,NA,710,NA,NA,464,2,legacy,Female,1024,2,48000,-16,experiment,1,odd,droid,4391,NA,NA,15429,15897,8404,10015,NA,15431,NA,NA,NA,NA,NA,2368,NA,NA,15897,NA,9304,NA,NA,15431,Runtime for Android template,9,4459,9,NA,no,1280,0.017128337
100,100,19,502.7,502.7,#000000,no,NA,droid,legacy,legacy,0,I confirm that my participation has been explained and consent to taking part in the experiment,relative,1,undefined,undefined,1,0,1,0,9,9,0,0,0,9,0,0,0,0,0,0,NA,0,9,0,0,0,NA,9,357,487,04/03/2018 10:34,A template containing a practice and an experimental phase,96,no,800,1280,15.72330189,yes,Exp_10_working.osexp,C:\Users\russe\Dropbox,no,mono,no,32,no,#ffffff,no,I confirm that my participation has been explained and consent to taking part in the experiment,NA,NA,yes,800,NA,droid,9,9,14,C:/Users/russe/Dropbox/Exp_10/subject-1.csv,droid,Jazzy James,3.1.7,0,14,NA,1,NA,1,NA,NA,14,568,NA,899,NA,710,NA,NA,568,2,legacy,Female,1024,2,48000,-16,experiment,1,odd,droid,4391,NA,NA,15997,16568,8404,10015,NA,15999,NA,NA,NA,NA,NA,2368,NA,NA,16568,NA,9304,NA,NA,15999,Runtime for Android template,10,5027,10,NA,no,1280,1.323449539
100,100,19,506.8181818,506.8181818,#000000,no,NA,droid,legacy,legacy,0,I confirm that my participation has been explained and consent to taking part in the experiment,relative,1,undefined,undefined,1,0,1,0,10,10,0,0,0,10,0,0,0,0,0,0,NA,0,10,0,0,0,NA,10,929,143,04/03/2018 10:34,A template containing a practice and an experimental phase,96,no,800,1280,15.72330189,yes,Exp_10_working.osexp,C:\Users\russe\Dropbox,no,mono,no,32,no,#ffffff,no,I confirm that my participation has been explained and consent to taking part in the experiment,NA,NA,yes,800,NA,droid,10,10,5,C:/Users/russe/Dropbox/Exp_10/subject-1.csv,droid,Jazzy James,3.1.7,0,5,NA,1,NA,1,NA,NA,5,548,NA,899,NA,710,NA,NA,548,2,legacy,Female,1024,2,48000,-16,experiment,1,odd,droid,4391,NA,NA,16656,17208,8404,10015,NA,16658,NA,NA,NA,NA,NA,2368,NA,NA,17208,NA,9304,NA,NA,16658,Runtime for Android template,11,5575,11,NA,no,1280,1.072233923
100,100,19,503.1666667,503.1666667,#000000,no,NA,droid,legacy,legacy,0,I confirm that my participation has been explained and consent to taking part in the experiment,relative,1,undefined,undefined,1,0,1,0,11,11,0,0,0,11,0,0,0,0,0,0,NA,0,11,0,0,0,NA,11,1036,632,04/03/2018 10:34,A template containing a practice and an experimental phase,96,no,800,1280,15.72330189,yes,Exp_10_working.osexp,C:\Users\russe\Dropbox,no,mono,no,32,no,#ffffff,no,I confirm that my participation has been explained and consent to taking part in the experiment,NA,NA,yes,800,NA,droid,11,11,23,C:/Users/russe/Dropbox/Exp_10/subject-1.csv,droid,Jazzy James,3.1.7,0,23,NA,1,NA,1,NA,NA,23,463,NA,899,NA,710,NA,NA,463,2,legacy,Female,1024,2,48000,-16,experiment,1,odd,droid,4391,NA,NA,17325,17792,8404,10015,NA,17326,NA,NA,NA,NA,NA,2368,NA,NA,17792,NA,9304,NA,NA,17327,Runtime for Android template,12,6038,12,NA,no,1280,0.004567557
100,100,19,501.7692308,501.7692308,#000000,no,NA,droid,legacy,legacy,0,I confirm that my participation has been explained and consent to taking part in the experiment,relative,1,undefined,undefined,1,0,1,0,12,12,0,0,0,12,0,0,0,0,0,0,NA,0,12,0,0,0,NA,12,555,358,04/03/2018 10:34,A template containing a practice and an experimental phase,96,no,800,1280,15.72330189,yes,Exp_10_working.osexp,C:\Users\russe\Dropbox,no,mono,no,32,no,#ffffff,no,I confirm that my participation has been explained and consent to taking part in the experiment,NA,NA,yes,800,NA,droid,12,12,9,C:/Users/russe/Dropbox/Exp_10/subject-1.csv,droid,Jazzy James,3.1.7,0,9,NA,1,NA,1,NA,NA,9,485,NA,899,NA,710,NA,NA,485,2,legacy,Female,1024,2,48000,-16,experiment,1,odd,droid,4391,NA,NA,17959,18448,8404,10015,NA,17961,NA,NA,NA,NA,NA,2368,NA,NA,18448,NA,9304,NA,NA,17961,Runtime for Android template,13,6523,13,NA,no,1280,0.280904734
100,100,19,496,496,#000000,no,NA,droid,legacy,legacy,0,I confirm that my participation has been explained and consent to taking part in the experiment,relative,1,undefined,undefined,1,0,1,0,13,13,0,0,0,13,0,0,0,0,0,0,NA,0,13,0,0,0,NA,13,991,313,04/03/2018 10:34,A template containing a practice and an experimental phase,96,no,800,1280,15.72330189,yes,Exp_10_working.osexp,C:\Users\russe\Dropbox,no,mono,no,32,no,#ffffff,no,I confirm that my participation has been explained and consent to taking part in the experiment,NA,NA,yes,800,NA,droid,13,13,11,C:/Users/russe/Dropbox/Exp_10/subject-1.csv,droid,Jazzy James,3.1.7,0,11,NA,1,NA,1,NA,NA,11,421,NA,899,NA,710,NA,NA,421,2,legacy,Female,1024,2,48000,-16,experiment,1,odd,droid,4391,NA,NA,18560,18984,8404,10015,NA,18561,NA,NA,NA,NA,NA,2368,NA,NA,18984,NA,9304,NA,NA,18561,Runtime for Android template,14,6944,14,NA,no,1280,-0.522985236
93.33333333,93.33333333,19,493.3333333,493.3333333,#000000,no,NA,droid,legacy,legacy,0,I confirm that my participation has been explained and consent to taking part in the experiment,relative,0,undefined,undefined,0,0,1,0,14,14,0,0,0,14,0,0,0,0,0,0,NA,0,14,0,0,0,NA,14,181,701,04/03/2018 10:34,A template containing a practice and an experimental phase,96,no,800,1280,15.72330189,yes,Exp_10_working.osexp,C:\Users\russe\Dropbox,no,mono,no,32,no,#ffffff,no,I confirm that my participation has been explained and consent to taking part in the experiment,NA,NA,yes,800,NA,droid,14,14,20,C:/Users/russe/Dropbox/Exp_10/subject-1.csv,droid,Jazzy James,3.1.7,0,19,NA,1,NA,1,NA,NA,19,456,NA,899,NA,710,NA,NA,456,2,legacy,Female,1024,2,48000,-16,experiment,1,odd,droid,4391,NA,NA,19164,19624,8404,10015,NA,19166,NA,NA,NA,NA,NA,2368,NA,NA,19624,NA,9304,NA,NA,19166,Runtime for Android template,14,7400,15,NA,no,1280,-0.083357909
93.75,93.75,19,493.9375,493.9375,#000000,no,NA,droid,legacy,legacy,0,I confirm that my participation has been explained and consent to taking part in the experiment,relative,1,undefined,undefined,1,0,1,0,15,15,0,0,0,15,0,0,0,0,0,0,NA,0,15,0,0,0,NA,15,569,668,04/03/2018 10:34,A template containing a practice and an experimental phase,96,no,800,1280,15.72330189,yes,Exp_10_working.osexp,C:\Users\russe\Dropbox,no,mono,no,32,no,#ffffff,no,I confirm that my participation has been explained and consent to taking part in the experiment,NA,NA,yes,800,NA,droid,15,15,21,C:/Users/russe/Dropbox/Exp_10/subject-1.csv,droid,Jazzy James,3.1.7,0,21,NA,1,NA,1,NA,NA,21,503,NA,899,NA,710,NA,NA,503,2,legacy,Female,1024,2,48000,-16,experiment,1,odd,droid,4391,NA,NA,19781,20288,8404,10015,NA,19783,NA,NA,NA,NA,NA,2368,NA,NA,20289,NA,9304,NA,NA,19783,Runtime for Android template,15,7903,16,NA,no,1280,0.506998788
100,100,19,714,714,#000000,no,1,droid,legacy,legacy,0,I confirm that my participation has been explained and consent to taking part in the experiment,relative,1,undefined,undefined,1,0,1,0,16,16,0,0,0,16,0,0,0,0,0,0,NA,0,16,0,0,0,NA,16,238,290,04/03/2018 10:34,A template containing a practice and an experimental phase,96,no,800,1280,15.72330189,yes,Exp_10_working.osexp,C:\Users\russe\Dropbox,no,mono,no,32,no,#ffffff,no,I confirm that my participation has been explained and consent to taking part in the experiment,NA,2,yes,800,oe,droid,0,15,8,C:/Users/russe/Dropbox/Exp_10/subject-1.csv,droid,Jazzy James,3.1.7,0,8,NA,1,NA,1,1,NA,8,714,NA,899,NA,710,1327,NA,714,2,legacy,Female,1024,2,48000,-16,experiment,1,odd,droid,4391,NA,NA,21820,22537,8404,10015,NA,21821,21799,NA,NA,NA,NA,2368,NA,NA,22537,NA,9304,20471,NA,21821,Runtime for Android template,1,714,1,0.125,no,1280,3.157323533
100,100,19,563,563,#000000,no,1,droid,legacy,legacy,0,I confirm that my participation has been explained and consent to taking part in the experiment,relative,1,undefined,undefined,1,0,1,0,17,17,0,0,0,17,0,0,0,0,0,0,NA,0,17,0,0,0,NA,17,338,315,04/03/2018 10:34,A template containing a practice and an experimental phase,96,no,800,1280,15.72330189,yes,Exp_10_working.osexp,C:\Users\russe\Dropbox,no,mono,no,32,no,#ffffff,no,I confirm that my participation has been explained and consent to taking part in the experiment,NA,2,yes,800,ee,droid,1,15,8,C:/Users/russe/Dropbox/Exp_10/subject-1.csv,droid,Jazzy James,3.1.7,0,8,NA,1,NA,1,1,NA,8,412,NA,899,NA,710,1327,NA,412,2,legacy,Female,1024,2,48000,-16,experiment,1,odd,droid,4391,NA,NA,22648,23064,8404,10015,NA,22650,21799,NA,NA,NA,NA,2368,NA,NA,23064,NA,9304,20471,NA,22650,Runtime for Android template,2,1126,2,0.16667,no,1280,-0.636032263
100,100,19,504,504,#000000,no,1,droid,legacy,legacy,0,I confirm that my participation has been explained and consent to taking part in the experiment,relative,1,undefined,undefined,1,0,1,0,18,18,0,0,0,18,0,0,0,0,0,0,NA,0,18,0,0,0,NA,18,731,509,04/03/2018 10:34,A template containing a practice and an experimental phase,96,no,800,1280,15.72330189,yes,Exp_10_working.osexp,C:\Users\russe\Dropbox,no,mono,no,32,no,#ffffff,no,I confirm that my participation has been explained and consent to taking part in the experiment,NA,1,yes,800,ek,droid,2,15,16,C:/Users/russe/Dropbox/Exp_10/subject-1.csv,droid,Jazzy James,3.1.7,0,16,NA,1,NA,1,1,NA,16,386,NA,899,NA,710,1327,NA,386,2,legacy,Female,1024,2,48000,-16,experiment,1,odd,droid,4391,NA,NA,23155,23544,8404,10015,NA,23156,21799,NA,NA,NA,NA,2368,NA,NA,23544,NA,9304,20471,NA,23156,Runtime for Android template,3,1512,3,0.08333,no,1280,-0.962612564
100,100,19,485,485,#000000,no,1,droid,legacy,legacy,0,I confirm that my participation has been explained and consent to taking part in the experiment,relative,1,undefined,undefined,1,0,1,0,19,19,0,0,0,19,0,0,0,0,0,0,NA,0,19,0,0,0,NA,19,708,100,04/03/2018 10:34,A template containing a practice and an experimental phase,96,no,800,1280,15.72330189,yes,Exp_10_working.osexp,C:\Users\russe\Dropbox,no,mono,no,32,no,#ffffff,no,I confirm that my participation has been explained and consent to taking part in the experiment,NA,1,yes,800,kc,droid,3,15,4,C:/Users/russe/Dropbox/Exp_10/subject-1.csv,droid,Jazzy James,3.1.7,0,4,NA,1,NA,1,1,NA,4,428,NA,899,NA,710,1327,NA,428,2,legacy,Female,1024,2,48000,-16,experiment,1,odd,droid,4391,NA,NA,23776,24208,8404,10015,NA,23778,21799,NA,NA,NA,NA,2368,NA,NA,24208,NA,9304,20471,NA,23778,Runtime for Android template,4,1940,4,0.125,no,1280,-0.435059771
100,100,19,471.2,471.2,#000000,no,1,droid,legacy,legacy,0,I confirm that my participation has been explained and consent to taking part in the experiment,relative,1,undefined,undefined,1,0,1,0,20,20,0,0,0,20,0,0,0,0,0,0,NA,0,20,0,0,0,NA,20,970,410,04/03/2018 10:34,A template containing a practice and an experimental phase,96,no,800,1280,15.72330189,yes,Exp_10_working.osexp,C:\Users\russe\Dropbox,no,mono,no,32,no,#ffffff,no,I confirm that my participation has been explained and consent to taking part in the experiment,NA,1,yes,800,cl,droid,4,15,17,C:/Users/russe/Dropbox/Exp_10/subject-1.csv,droid,Jazzy James,3.1.7,0,17,NA,1,NA,1,1,NA,17,416,NA,899,NA,710,1327,NA,416,2,legacy,Female,1024,2,48000,-16,experiment,1,odd,droid,4391,NA,NA,24332,24752,8404,10015,NA,24334,21799,NA,NA,NA,NA,2368,NA,NA,24752,NA,9304,20471,NA,24334,Runtime for Android template,5,2356,5,0.1,no,1280,-0.58578914
100,100,19,462.1666667,462.1666667,#000000,no,1,droid,legacy,legacy,0,I confirm that my participation has been explained and consent to taking part in the experiment,relative,1,undefined,undefined,1,0,1,0,21,21,0,0,0,21,0,0,0,0,0,0,NA,0,21,0,0,0,NA,21,403,661,04/03/2018 10:34,A template containing a practice and an experimental phase,96,no,800,1280,15.72330189,yes,Exp_10_working.osexp,C:\Users\russe\Dropbox,no,mono,no,32,no,#ffffff,no,I confirm that my participation has been explained and consent to taking part in the experiment,NA,1,yes,800,lm,droid,5,15,20,C:/Users/russe/Dropbox/Exp_10/subject-1.csv,droid,Jazzy James,3.1.7,0,20,NA,1,NA,1,1,NA,20,417,NA,899,NA,710,1327,NA,417,2,legacy,Female,1024,2,48000,-16,experiment,1,odd,droid,4391,NA,NA,24884,25304,8404,10015,NA,24885,21799,NA,NA,NA,NA,2368,NA,NA,25304,NA,9304,20471,NA,24885,Runtime for Android template,6,2773,6,0.25,no,1280,-0.573228359
100,100,19,462.4285714,462.4285714,#000000,no,1,droid,legacy,legacy,0,I confirm that my participation has been explained and consent to taking part in the experiment,relative,1,undefined,undefined,1,0,1,0,22,22,0,0,0,22,0,0,0,0,0,0,NA,0,22,0,0,0,NA,22,316,284,04/03/2018 10:34,A template containing a practice and an experimental phase,96,no,800,1280,15.72330189,yes,Exp_10_working.osexp,C:\Users\russe\Dropbox,no,mono,no,32,no,#ffffff,no,I confirm that my participation has been explained and consent to taking part in the experiment,NA,2,yes,800,me,droid,6,15,8,C:/Users/russe/Dropbox/Exp_10/subject-1.csv,droid,Jazzy James,3.1.7,0,8,NA,1,NA,1,1,NA,8,464,NA,899,NA,710,1327,NA,464,2,legacy,Female,1024,2,48000,-16,experiment,1,odd,droid,4391,NA,NA,25484,25952,8404,10015,NA,25486,21799,NA,NA,NA,NA,2368,NA,NA,25952,NA,9304,20471,NA,25486,Runtime for Android template,7,3237,7,0.22222,no,1280,0.017128337
100,100,19,460.875,460.875,#000000,no,1,droid,legacy,legacy,0,I confirm that my participation has been explained and consent to taking part in the experiment,relative,1,undefined,undefined,1,0,1,0,23,23,0,0,0,23,0,0,0,0,0,0,NA,0,23,0,0,0,NA,23,385,147,04/03/2018 10:34,A template containing a practice and an experimental phase,96,no,800,1280,15.72330189,yes,Exp_10_working.osexp,C:\Users\russe\Dropbox,no,mono,no,32,no,#ffffff,no,I confirm that my participation has been explained and consent to taking part in the experiment,NA,1,yes,800,ea,droid,7,15,2,C:/Users/russe/Dropbox/Exp_10/subject-1.csv,droid,Jazzy James,3.1.7,0,2,NA,1,NA,1,1,NA,2,450,NA,899,NA,710,1327,NA,450,2,legacy,Female,1024,2,48000,-16,experiment,1,odd,droid,4391,NA,NA,26043,26496,8404,10015,NA,26045,21799,NA,NA,NA,NA,2368,NA,NA,26496,NA,9304,20471,NA,26045,Runtime for Android template,8,3687,8,0.08333,no,1280,-0.158722594
100,100,19,461.6666667,461.6666667,#000000,no,1,droid,legacy,legacy,0,I confirm that my participation has been explained and consent to taking part in the experiment,relative,1,undefined,undefined,1,0,1,0,24,24,0,0,0,24,0,0,0,0,0,0,NA,0,24,0,0,0,NA,24,743,660,04/03/2018 10:34,A template containing a practice and an experimental phase,96,no,800,1280,15.72330189,yes,Exp_10_working.osexp,C:\Users\russe\Dropbox,no,mono,no,32,no,#ffffff,no,I confirm that my participation has been explained and consent to taking part in the experiment,NA,2,yes,800,ao,droid,8,15,22,C:/Users/russe/Dropbox/Exp_10/subject-1.csv,droid,Jazzy James,3.1.7,0,22,NA,1,NA,1,1,NA,22,468,NA,899,NA,710,1327,NA,468,2,legacy,Female,1024,2,48000,-16,experiment,1,odd,droid,4391,NA,NA,26648,27120,8404,10015,NA,26650,21799,NA,NA,NA,NA,2368,NA,NA,27120,NA,9304,20471,NA,26650,Runtime for Android template,9,4155,9,0.33333,no,1280,0.067371461
100,100,19,456.9,456.9,#000000,no,1,droid,legacy,legacy,0,I confirm that my participation has been explained and consent to taking part in the experiment,relative,1,undefined,undefined,1,0,1,0,25,25,0,0,0,25,0,0,0,0,0,0,NA,0,25,0,0,0,NA,25,524,523,04/03/2018 10:34,A template containing a practice and an experimental phase,96,no,800,1280,15.72330189,yes,Exp_10_working.osexp,C:\Users\russe\Dropbox,no,mono,no,32,no,#ffffff,no,I confirm that my participation has been explained and consent to taking part in the experiment,NA,1,yes,800,oj,droid,9,15,15,C:/Users/russe/Dropbox/Exp_10/subject-1.csv,droid,Jazzy James,3.1.7,0,15,NA,1,NA,1,1,NA,15,414,NA,899,NA,710,1327,NA,414,2,legacy,Female,1024,2,48000,-16,experiment,1,odd,droid,4391,NA,NA,27198,27617,8404,10015,NA,27200,21799,NA,NA,NA,NA,2368,NA,NA,27617,NA,9304,20471,NA,27200,Runtime for Android template,10,4569,10,0.0625,no,1280,-0.610910702
100,100,19,457.9090909,457.9090909,#000000,no,1,droid,legacy,legacy,0,I confirm that my participation has been explained and consent to taking part in the experiment,relative,1,undefined,undefined,1,0,1,0,26,26,0,0,0,26,0,0,0,0,0,0,NA,0,26,0,0,0,NA,26,566,690,04/03/2018 10:34,A template containing a practice and an experimental phase,96,no,800,1280,15.72330189,yes,Exp_10_working.osexp,C:\Users\russe\Dropbox,no,mono,no,32,no,#ffffff,no,I confirm that my participation has been explained and consent to taking part in the experiment,NA,1,yes,800,jn,droid,10,15,21,C:/Users/russe/Dropbox/Exp_10/subject-1.csv,droid,Jazzy James,3.1.7,0,21,NA,1,NA,1,1,NA,21,468,NA,899,NA,710,1327,NA,468,2,legacy,Female,1024,2,48000,-16,experiment,1,odd,droid,4391,NA,NA,27784,28256,8404,10015,NA,27786,21799,NA,NA,NA,NA,2368,NA,NA,28256,NA,9304,20471,NA,27786,Runtime for Android template,11,5037,11,0.125,no,1280,0.067371461
100,100,19,448.8333333,448.8333333,#000000,no,1,droid,legacy,legacy,0,I confirm that my participation has been explained and consent to taking part in the experiment,relative,1,undefined,undefined,1,0,1,0,27,27,0,0,0,27,0,0,0,0,0,0,NA,0,27,0,0,0,NA,27,941,339,04/03/2018 10:34,A template containing a practice and an experimental phase,96,no,800,1280,15.72330189,yes,Exp_10_working.osexp,C:\Users\russe\Dropbox,no,mono,no,32,no,#ffffff,no,I confirm that my participation has been explained and consent to taking part in the experiment,NA,4,yes,800,nh,droid,11,15,11,C:/Users/russe/Dropbox/Exp_10/subject-1.csv,droid,Jazzy James,3.1.7,0,11,NA,1,NA,1,1,NA,11,349,NA,899,NA,710,1327,NA,349,2,legacy,Female,1024,2,48000,-16,experiment,1,odd,droid,4391,NA,NA,28559,28912,8404,10015,NA,28561,21799,NA,NA,NA,NA,2368,NA,NA,28912,NA,9304,20471,NA,28561,Runtime for Android template,12,5386,12,0.8,no,1280,-1.427361453
100,100,19,451.0769231,451.0769231,#000000,no,1,droid,legacy,legacy,0,I confirm that my participation has been explained and consent to taking part in the experiment,relative,1,undefined,undefined,1,0,1,0,28,28,0,0,0,28,0,0,0,0,0,0,NA,0,28,0,0,0,NA,28,375,499,04/03/2018 10:34,A template containing a practice and an experimental phase,96,no,800,1280,15.72330189,yes,Exp_10_working.osexp,C:\Users\russe\Dropbox,no,mono,no,32,no,#ffffff,no,I confirm that my participation has been explained and consent to taking part in the experiment,NA,1,yes,800,hi,droid,12,15,14,C:/Users/russe/Dropbox/Exp_10/subject-1.csv,droid,Jazzy James,3.1.7,0,14,NA,1,NA,1,1,NA,14,478,NA,899,NA,710,1327,NA,478,2,legacy,Female,1024,2,48000,-16,experiment,1,odd,droid,4391,NA,NA,29142,29624,8404,10015,NA,29144,21799,NA,NA,NA,NA,2368,NA,NA,29624,NA,9304,20471,NA,29144,Runtime for Android template,13,5864,13,0.07692,no,1280,0.192979268
100,100,19,448.2142857,448.2142857,#000000,no,1,droid,legacy,legacy,0,I confirm that my participation has been explained and consent to taking part in the experiment,relative,1,undefined,undefined,1,0,1,0,29,29,0,0,0,29,0,0,0,0,0,0,NA,0,29,0,0,0,NA,29,742,84,04/03/2018 10:34,A template containing a practice and an experimental phase,96,no,800,1280,15.72330189,yes,Exp_10_working.osexp,C:\Users\russe\Dropbox,no,mono,no,32,no,#ffffff,no,I confirm that my participation has been explained and consent to taking part in the experiment,NA,1,yes,800,ic,droid,13,15,4,C:/Users/russe/Dropbox/Exp_10/subject-1.csv,droid,Jazzy James,3.1.7,0,4,NA,1,NA,1,1,NA,4,411,NA,899,NA,710,1327,NA,411,2,legacy,Female,1024,2,48000,-16,experiment,1,odd,droid,4391,NA,NA,29809,30223,8404,10015,NA,29811,21799,NA,NA,NA,NA,2368,NA,NA,30224,NA,9304,20471,NA,29811,Runtime for Android template,14,6275,14,1,no,1280,-0.648593044
100,100,19,449.2666667,449.2666667,#000000,no,1,droid,legacy,legacy,0,I confirm that my participation has been explained and consent to taking part in the experiment,relative,1,undefined,undefined,1,0,1,0,30,30,0,0,0,30,0,0,0,0,0,0,NA,0,30,0,0,0,NA,30,767,345,04/03/2018 10:34,A template containing a practice and an experimental phase,96,no,800,1280,15.72330189,yes,Exp_10_working.osexp,C:\Users\russe\Dropbox,no,mono,no,32,no,#ffffff,no,I confirm that my participation has been explained and consent to taking part in the experiment,NA,1,yes,800,cg,droid,14,15,10,C:/Users/russe/Dropbox/Exp_10/subject-1.csv,droid,Jazzy James,3.1.7,0,10,NA,1,NA,1,1,NA,10,464,NA,899,NA,710,1327,NA,464,2,legacy,Female,1024,2,48000,-16,experiment,1,odd,droid,4391,NA,NA,30380,30848,8404,10015,NA,30381,21799,NA,NA,NA,NA,2368,NA,NA,30848,NA,9304,20471,NA,30382,Runtime for Android template,15,6739,15,0.1,no,1280,0.017128337
100,100,19,445.5625,445.5625,#000000,no,1,droid,legacy,legacy,0,I confirm that my participation has been explained and consent to taking part in the experiment,relative,1,undefined,undefined,1,0,1,0,31,31,0,0,0,31,0,0,0,0,0,0,NA,0,31,0,0,0,NA,31,987,506,04/03/2018 10:34,A template containing a practice and an experimental phase,96,no,800,1280,15.72330189,yes,Exp_10_working.osexp,C:\Users\russe\Dropbox,no,mono,no,32,no,#ffffff,no,I confirm that my participation has been explained and consent to taking part in the experiment,NA,1,yes,800,gl,droid,15,15,17,C:/Users/russe/Dropbox/Exp_10/subject-1.csv,droid,Jazzy James,3.1.7,0,17,NA,1,NA,1,1,NA,17,390,NA,899,NA,710,1327,NA,390,2,legacy,Female,1024,2,48000,-16,experiment,1,odd,droid,4391,NA,NA,30982,31376,8404,10015,NA,30984,21799,NA,NA,NA,NA,2368,NA,NA,31376,NA,9304,20471,NA,30984,Runtime for Android template,16,7129,16,0.2,no,1280,-0.912369441
100,100,19,447.1764706,447.1764706,#000000,no,1,droid,legacy,legacy,0,I confirm that my participation has been explained and consent to taking part in the experiment,relative,1,undefined,undefined,1,0,1,0,32,32,0,0,0,32,0,0,0,0,0,0,NA,0,32,0,0,0,NA,32,728,165,04/03/2018 10:34,A template containing a practice and an experimental phase,96,no,800,1280,15.72330189,yes,Exp_10_working.osexp,C:\Users\russe\Dropbox,no,mono,no,32,no,#ffffff,no,I confirm that my participation has been explained and consent to taking part in the experiment,NA,1,yes,800,lc,droid,16,15,4,C:/Users/russe/Dropbox/Exp_10/subject-1.csv,droid,Jazzy James,3.1.7,0,4,NA,1,NA,1,1,NA,4,473,NA,899,NA,710,1327,NA,473,2,legacy,Female,1024,2,48000,-16,experiment,1,odd,droid,4391,NA,NA,31531,32008,8404,10015,NA,31533,21799,NA,NA,NA,NA,2368,NA,NA,32008,NA,9304,20471,NA,31533,Runtime for Android template,17,7602,17,0.25,no,1280,0.130175364
100,100,19,449.5555556,449.5555556,#000000,no,1,droid,legacy,legacy,0,I confirm that my participation has been explained and consent to taking part in the experiment,relative,1,undefined,undefined,1,0,1,0,33,33,0,0,0,33,0,0,0,0,0,0,NA,0,33,0,0,0,NA,33,741,724,04/03/2018 10:34,A template containing a practice and an experimental phase,96,no,800,1280,15.72330189,yes,Exp_10_working.osexp,C:\Users\russe\Dropbox,no,mono,no,32,no,#ffffff,no,I confirm that my participation has been explained and consent to taking part in the experiment,NA,3,yes,800,co,droid,17,15,22,C:/Users/russe/Dropbox/Exp_10/subject-1.csv,droid,Jazzy James,3.1.7,0,22,NA,1,NA,1,1,NA,22,490,NA,899,NA,710,1327,NA,490,2,legacy,Female,1024,2,48000,-16,experiment,1,odd,droid,4391,NA,NA,32098,32592,8404,10015,NA,32100,21799,NA,NA,NA,NA,2368,NA,NA,32592,NA,9304,20471,NA,32100,Runtime for Android template,18,8092,18,0.3,no,1280,0.343708638
100,100,19,445.6315789,445.6315789,#000000,no,1,droid,legacy,legacy,0,I confirm that my participation has been explained and consent to taking part in the experiment,relative,1,undefined,undefined,1,0,1,0,34,34,0,0,0,34,0,0,0,0,0,0,NA,0,34,0,0,0,NA,34,946,285,04/03/2018 10:34,A template containing a practice and an experimental phase,96,no,800,1280,15.72330189,yes,Exp_10_working.osexp,C:\Users\russe\Dropbox,no,mono,no,32,no,#ffffff,no,I confirm that my participation has been explained and consent to taking part in the experiment,NA,1,yes,800,oh,droid,18,15,11,C:/Users/russe/Dropbox/Exp_10/subject-1.csv,droid,Jazzy James,3.1.7,0,11,NA,1,NA,1,1,NA,11,375,NA,899,NA,710,1327,NA,375,2,legacy,Female,1024,2,48000,-16,experiment,1,odd,droid,4391,NA,NA,32813,33192,8404,10015,NA,32815,21799,NA,NA,NA,NA,2368,NA,NA,33192,NA,9304,20471,NA,32815,Runtime for Android template,19,8467,19,0.0625,no,1280,-1.100781152
95,95,19,443.95,443.95,#000000,no,1,droid,legacy,legacy,0,I confirm that my participation has been explained and consent to taking part in the experiment,relative,0,undefined,undefined,0,0,1,0,35,35,0,0,0,35,0,0,0,0,0,0,NA,0,35,0,0,0,NA,35,642,477,04/03/2018 10:34,A template containing a practice and an experimental phase,96,no,800,1280,15.72330189,yes,Exp_10_working.osexp,C:\Users\russe\Dropbox,no,mono,no,32,no,#ffffff,no,I confirm that my participation has been explained and consent to taking part in the experiment,NA,2,yes,800,hj,droid,19,15,15,C:/Users/russe/Dropbox/Exp_10/subject-1.csv,droid,Jazzy James,3.1.7,0,16,NA,1,NA,1,1,NA,16,412,NA,899,NA,710,1327,NA,412,2,legacy,Female,1024,2,48000,-16,experiment,1,odd,droid,4391,NA,NA,33328,33744,8404,10015,NA,33330,21799,NA,NA,NA,NA,2368,NA,NA,33744,NA,9304,20471,NA,33330,Runtime for Android template,19,8879,20,0.15385,no,1280,-0.636032263
95.23809524,95.23809524,19,440,440,#000000,no,1,droid,legacy,legacy,0,I confirm that my participation has been explained and consent to taking part in the experiment,relative,1,undefined,undefined,1,0,1,0,36,36,0,0,0,36,0,0,0,0,0,0,NA,0,36,0,0,0,NA,36,716,691,04/03/2018 10:34,A template containing a practice and an experimental phase,96,no,800,1280,15.72330189,yes,Exp_10_working.osexp,C:\Users\russe\Dropbox,no,mono,no,32,no,#ffffff,no,I confirm that my participation has been explained and consent to taking part in the experiment,NA,2,yes,800,jo,droid,20,15,22,C:/Users/russe/Dropbox/Exp_10/subject-1.csv,droid,Jazzy James,3.1.7,0,22,NA,1,NA,1,1,NA,22,361,NA,899,NA,710,1327,NA,361,2,legacy,Female,1024,2,48000,-16,experiment,1,odd,droid,4391,NA,NA,33860,34224,8404,10015,NA,33861,21799,NA,NA,NA,NA,2368,NA,NA,34224,NA,9304,20471,NA,33861,Runtime for Android template,20,9240,21,0.25,no,1280,-1.276632083
95.45454545,95.45454545,19,437.7727273,437.7727273,#000000,no,1,droid,legacy,legacy,0,I confirm that my participation has been explained and consent to taking part in the experiment,relative,1,undefined,undefined,1,0,1,0,37,37,0,0,0,37,0,0,0,0,0,0,NA,0,37,0,0,0,NA,37,352,362,04/03/2018 10:34,A template containing a practice and an experimental phase,96,no,800,1280,15.72330189,yes,Exp_10_working.osexp,C:\Users\russe\Dropbox,no,mono,no,32,no,#ffffff,no,I confirm that my participation has been explained and consent to taking part in the experiment,NA,2,yes,800,oe,droid,21,15,8,C:/Users/russe/Dropbox/Exp_10/subject-1.csv,droid,Jazzy James,3.1.7,0,8,NA,1,NA,1,1,NA,8,391,NA,899,NA,710,1327,NA,391,2,legacy,Female,1024,2,48000,-16,experiment,1,odd,droid,4391,NA,NA,34413,34808,8404,10015,NA,34415,21799,NA,NA,NA,NA,2368,NA,NA,34808,NA,9304,20471,NA,34415,Runtime for Android template,21,9631,22,0.125,no,1280,-0.89980866
95.65217391,95.65217391,19,433.0869565,433.0869565,#000000,no,1,droid,legacy,legacy,0,I confirm that my participation has been explained and consent to taking part in the experiment,relative,1,undefined,undefined,1,0,1,0,38,38,0,0,0,38,0,0,0,0,0,0,NA,0,38,0,0,0,NA,38,544,312,04/03/2018 10:34,A template containing a practice and an experimental phase,96,no,800,1280,15.72330189,yes,Exp_10_working.osexp,C:\Users\russe\Dropbox,no,mono,no,32,no,#ffffff,no,I confirm that my participation has been explained and consent to taking part in the experiment,NA,1,yes,800,ef,droid,22,15,9,C:/Users/russe/Dropbox/Exp_10/subject-1.csv,droid,Jazzy James,3.1.7,0,9,NA,1,NA,1,1,NA,9,330,NA,899,NA,710,1327,NA,330,2,legacy,Female,1024,2,48000,-16,experiment,1,odd,droid,4391,NA,NA,34986,35320,8404,10015,NA,34988,21799,NA,NA,NA,NA,2368,NA,NA,35320,NA,9304,20471,NA,34988,Runtime for Android template,22,9961,23,0.08333,no,1280,-1.666016288
95.83333333,95.83333333,19,434.4583333,434.4583333,#000000,no,1,droid,legacy,legacy,0,I confirm that my participation has been explained and consent to taking part in the experiment,relative,1,undefined,undefined,1,0,1,0,39,39,0,0,0,39,0,0,0,0,0,0,NA,0,39,0,0,0,NA,39,706,726,04/03/2018 10:34,A template containing a practice and an experimental phase,96,no,800,1280,15.72330189,yes,Exp_10_working.osexp,C:\Users\russe\Dropbox,no,mono,no,32,no,#ffffff,no,I confirm that my participation has been explained and consent to taking part in the experiment,NA,1,yes,800,fo,droid,23,15,22,C:/Users/russe/Dropbox/Exp_10/subject-1.csv,droid,Jazzy James,3.1.7,0,22,NA,1,NA,1,1,NA,22,466,NA,899,NA,710,1327,NA,466,2,legacy,Female,1024,2,48000,-16,experiment,1,odd,droid,4391,NA,NA,35474,35944,8404,10015,NA,35476,21799,NA,NA,NA,NA,2368,NA,NA,35944,NA,9304,20471,NA,35476,Runtime for Android template,23,10427,24,0.33333,no,1280,0.042249899
96,96,19,438.48,438.48,#000000,no,1,droid,legacy,legacy,0,I confirm that my participation has been explained and consent to taking part in the experiment,relative,1,undefined,undefined,1,0,1,0,40,40,0,0,0,40,0,0,0,0,0,0,NA,0,40,0,0,0,NA,40,248,698,04/03/2018 10:34,A template containing a practice and an experimental phase,96,no,800,1280,15.72330189,yes,Exp_10_working.osexp,C:\Users\russe\Dropbox,no,mono,no,32,no,#ffffff,no,I confirm that my participation has been explained and consent to taking part in the experiment,NA,1,yes,800,om,droid,24,15,20,C:/Users/russe/Dropbox/Exp_10/subject-1.csv,droid,Jazzy James,3.1.7,0,20,NA,1,NA,1,1,NA,20,535,NA,899,NA,710,1327,NA,535,2,legacy,Female,1024,2,48000,-16,experiment,1,odd,droid,4391,NA,NA,36101,36640,8404,10015,NA,36103,21799,NA,NA,NA,NA,2368,NA,NA,36640,NA,9304,20471,NA,36103,Runtime for Android template,24,10962,25,0.0625,no,1280,0.908943773
96.15384615,96.15384615,19,440.0384615,440.0384615,#000000,no,1,droid,legacy,legacy,0,I confirm that my participation has been explained and consent to taking part in the experiment,relative,1,undefined,undefined,1,0,1,0,41,41,0,0,0,41,0,0,0,0,0,0,NA,0,41,0,0,0,NA,41,506,28,04/03/2018 10:34,A template containing a practice and an experimental phase,96,no,800,1280,15.72330189,yes,Exp_10_working.osexp,C:\Users\russe\Dropbox,no,mono,no,32,no,#ffffff,no,I confirm that my participation has been explained and consent to taking part in the experiment,NA,1,yes,800,mb,droid,25,15,3,C:/Users/russe/Dropbox/Exp_10/subject-1.csv,droid,Jazzy James,3.1.7,0,3,NA,1,NA,1,1,NA,3,479,NA,899,NA,710,1327,NA,479,2,legacy,Female,1024,2,48000,-16,experiment,1,odd,droid,4391,NA,NA,36734,37216,8404,10015,NA,36736,21799,NA,NA,NA,NA,2368,NA,NA,37216,NA,9304,20471,NA,36736,Runtime for Android template,25,11441,26,0.11111,no,1280,0.205540049
96.2962963,96.2962963,19,438.7037037,438.7037037,#000000,no,1,droid,legacy,legacy,0,I confirm that my participation has been explained and consent to taking part in the experiment,relative,1,undefined,undefined,1,0,1,0,42,42,0,0,0,42,0,0,0,0,0,0,NA,0,42,0,0,0,NA,42,1017,268,04/03/2018 10:34,A template containing a practice and an experimental phase,96,no,800,1280,15.72330189,yes,Exp_10_working.osexp,C:\Users\russe\Dropbox,no,mono,no,32,no,#ffffff,no,I confirm that my participation has been explained and consent to taking part in the experiment,NA,1,yes,800,bh,droid,26,15,11,C:/Users/russe/Dropbox/Exp_10/subject-1.csv,droid,Jazzy James,3.1.7,0,11,NA,1,NA,1,1,NA,11,404,NA,899,NA,710,1327,NA,404,2,legacy,Female,1024,2,48000,-16,experiment,1,odd,droid,4391,NA,NA,37369,37776,8404,10015,NA,37370,21799,NA,NA,NA,NA,2368,NA,NA,37776,NA,9304,20471,NA,37370,Runtime for Android template,26,11845,27,0.125,no,1280,-0.73651851
96.42857143,96.42857143,19,438.1428571,438.1428571,#000000,no,1,droid,legacy,legacy,0,I confirm that my participation has been explained and consent to taking part in the experiment,relative,1,undefined,undefined,1,0,1,0,43,43,0,0,0,43,0,0,0,0,0,0,NA,0,43,0,0,0,NA,43,988,310,04/03/2018 10:34,A template containing a practice and an experimental phase,96,no,800,1280,15.72330189,yes,Exp_10_working.osexp,C:\Users\russe\Dropbox,no,mono,no,32,no,#ffffff,no,I confirm that my participation has been explained and consent to taking part in the experiment,NA,1,yes,800,hh,droid,27,15,11,C:/Users/russe/Dropbox/Exp_10/subject-1.csv,droid,Jazzy James,3.1.7,0,11,NA,1,NA,1,1,NA,11,423,NA,899,NA,710,1327,NA,423,2,legacy,Female,1024,2,48000,-16,experiment,1,odd,droid,4391,NA,NA,37877,38305,8404,10015,NA,37879,21799,NA,NA,NA,NA,2368,NA,NA,38305,NA,9304,20471,NA,37879,Runtime for Android template,27,12268,28,0.07692,no,1280,-0.497863675
96.55172414,96.55172414,19,437.7241379,437.7241379,#000000,no,1,droid,legacy,legacy,0,I confirm that my participation has been explained and consent to taking part in the experiment,relative,1,undefined,undefined,1,0,1,0,44,44,0,0,0,44,0,0,0,0,0,0,NA,0,44,0,0,0,NA,44,714,96,04/03/2018 10:34,A template containing a practice and an experimental phase,96,no,800,1280,15.72330189,yes,Exp_10_working.osexp,C:\Users\russe\Dropbox,no,mono,no,32,no,#ffffff,no,I confirm that my participation has been explained and consent to taking part in the experiment,NA,1,yes,800,hc,droid,28,15,4,C:/Users/russe/Dropbox/Exp_10/subject-1.csv,droid,Jazzy James,3.1.7,0,4,NA,1,NA,1,1,NA,4,426,NA,899,NA,710,1327,NA,426,2,legacy,Female,1024,2,48000,-16,experiment,1,odd,droid,4391,NA,NA,38442,38872,8404,10015,NA,38444,21799,NA,NA,NA,NA,2368,NA,NA,38872,NA,9304,20471,NA,38444,Runtime for Android template,28,12694,29,0.07692,no,1280,-0.460181332
96.66666667,96.66666667,19,439.4333333,439.4333333,#000000,no,1,droid,legacy,legacy,0,I confirm that my participation has been explained and consent to taking part in the experiment,relative,1,undefined,undefined,1,0,1,0,45,45,0,0,0,45,0,0,0,0,0,0,NA,0,45,0,0,0,NA,45,342,303,04/03/2018 10:34,A template containing a practice and an experimental phase,96,no,800,1280,15.72330189,yes,Exp_10_working.osexp,C:\Users\russe\Dropbox,no,mono,no,32,no,#ffffff,no,I confirm that my participation has been explained and consent to taking part in the experiment,NA,1,yes,800,ce,droid,29,15,8,C:/Users/russe/Dropbox/Exp_10/subject-1.csv,droid,Jazzy James,3.1.7,0,8,NA,1,NA,1,1,NA,8,489,NA,899,NA,710,1327,NA,489,2,legacy,Female,1024,2,48000,-16,experiment,1,odd,droid,4391,NA,NA,39003,39496,8404,10015,NA,39005,21799,NA,NA,NA,NA,2368,NA,NA,39496,NA,9304,20471,NA,39005,Runtime for Android template,29,13183,30,0.1,no,1280,0.331147857
96.77419355,96.77419355,19,438.3548387,438.3548387,#000000,no,1,droid,legacy,legacy,0,I confirm that my participation has been explained and consent to taking part in the experiment,relative,1,undefined,undefined,1,0,1,0,46,46,0,0,0,46,0,0,0,0,0,0,NA,0,46,0,0,0,NA,46,799,69,04/03/2018 10:34,A template containing a practice and an experimental phase,96,no,800,1280,15.72330189,yes,Exp_10_working.osexp,C:\Users\russe\Dropbox,no,mono,no,32,no,#ffffff,no,I confirm that my participation has been explained and consent to taking part in the experiment,NA,1,yes,800,ec,droid,30,15,4,C:/Users/russe/Dropbox/Exp_10/subject-1.csv,droid,Jazzy James,3.1.7,0,4,NA,1,NA,1,1,NA,4,406,NA,899,NA,710,1327,NA,406,2,legacy,Female,1024,2,48000,-16,experiment,1,odd,droid,4391,NA,NA,39653,40064,8404,10015,NA,39656,21799,NA,NA,NA,NA,2368,NA,NA,40064,NA,9304,20471,NA,39656,Runtime for Android template,30,13589,31,0.08333,no,1280,-0.711396948
96.875,96.875,19,436.875,436.875,#000000,no,1,droid,legacy,legacy,0,I confirm that my participation has been explained and consent to taking part in the experiment,relative,1,undefined,undefined,1,0,1,0,47,47,0,0,0,47,0,0,0,0,0,0,NA,0,47,0,0,0,NA,47,784,73,04/03/2018 10:34,A template containing a practice and an experimental phase,96,no,800,1280,15.72330189,yes,Exp_10_working.osexp,C:\Users\russe\Dropbox,no,mono,no,32,no,#ffffff,no,I confirm that my participation has been explained and consent to taking part in the experiment,NA,1,yes,800,cc,droid,31,15,4,C:/Users/russe/Dropbox/Exp_10/subject-1.csv,droid,Jazzy James,3.1.7,0,4,NA,1,NA,1,1,NA,4,391,NA,899,NA,710,1327,NA,391,2,legacy,Female,1024,2,48000,-16,experiment,1,odd,droid,4391,NA,NA,40270,40664,8404,10015,NA,40272,21799,NA,NA,NA,NA,2368,NA,NA,40664,NA,9304,20471,NA,40272,Runtime for Android template,31,13980,32,0.1,no,1280,-0.89980866
93.93939394,93.93939394,19,435.969697,435.969697,#000000,no,1,droid,legacy,legacy,0,I confirm that my participation has been explained and consent to taking part in the experiment,relative,0,undefined,undefined,0,0,1,0,48,48,0,0,0,48,0,0,0,0,0,0,NA,0,48,0,0,0,NA,48,840,319,04/03/2018 10:34,A template containing a practice and an experimental phase,96,no,800,1280,15.72330189,yes,Exp_10_working.osexp,C:\Users\russe\Dropbox,no,mono,no,32,no,#ffffff,no,I confirm that my participation has been explained and consent to taking part in the experiment,NA,1,yes,800,ch,droid,32,15,11,C:/Users/russe/Dropbox/Exp_10/subject-1.csv,droid,Jazzy James,3.1.7,0,10,NA,1,NA,1,1,NA,10,407,NA,899,NA,710,1327,NA,407,2,legacy,Female,1024,2,48000,-16,experiment,1,odd,droid,4391,NA,NA,40821,41232,8404,10015,NA,40823,21799,NA,NA,NA,NA,2368,NA,NA,41232,NA,9304,20471,NA,40823,Runtime for Android template,31,14387,33,0.1,no,1280,-0.698836167
94.11764706,94.11764706,19,436.5588235,436.5588235,#000000,no,1,droid,legacy,legacy,0,I confirm that my participation has been explained and consent to taking part in the experiment,relative,1,undefined,undefined,1,0,1,0,49,49,0,0,0,49,0,0,0,0,0,0,NA,0,49,0,0,0,NA,49,392,340,04/03/2018 10:34,A template containing a practice and an experimental phase,96,no,800,1280,15.72330189,yes,Exp_10_working.osexp,C:\Users\russe\Dropbox,no,mono,no,32,no,#ffffff,no,I confirm that my participation has been explained and consent to taking part in the experiment,NA,1,yes,800,he,droid,33,15,8,C:/Users/russe/Dropbox/Exp_10/subject-1.csv,droid,Jazzy James,3.1.7,0,8,NA,1,NA,1,1,NA,8,456,NA,899,NA,710,1327,NA,456,2,legacy,Female,1024,2,48000,-16,experiment,1,odd,droid,4391,NA,NA,41388,41848,8404,10015,NA,41390,21799,NA,NA,NA,NA,2368,NA,NA,41848,NA,9304,20471,NA,41390,Runtime for Android template,32,14843,34,0.07692,no,1280,-0.083357909
94.28571429,94.28571429,19,437.6571429,437.6571429,#000000,no,1,droid,legacy,legacy,0,I confirm that my participation has been explained and consent to taking part in the experiment,relative,1,undefined,undefined,1,0,1,0,50,50,0,0,0,50,0,0,0,0,0,0,NA,0,50,0,0,0,NA,50,1038,764,04/03/2018 10:34,A template containing a practice and an experimental phase,96,no,800,1280,15.72330189,yes,Exp_10_working.osexp,C:\Users\russe\Dropbox,no,mono,no,32,no,#ffffff,no,I confirm that my participation has been explained and consent to taking part in the experiment,NA,1,yes,800,ep,droid,34,15,23,C:/Users/russe/Dropbox/Exp_10/subject-1.csv,droid,Jazzy James,3.1.7,0,23,NA,1,NA,1,1,NA,23,475,NA,899,NA,710,1327,NA,475,2,legacy,Female,1024,2,48000,-16,experiment,1,odd,droid,4391,NA,NA,42009,42488,8404,10015,NA,42011,21799,NA,NA,NA,NA,2368,NA,NA,42488,NA,9304,20471,NA,42011,Runtime for Android template,33,15318,35,0.08333,no,1280,0.155296926
94.44444444,94.44444444,19,437.25,437.25,#000000,no,1,droid,legacy,legacy,0,I confirm that my participation has been explained and consent to taking part in the experiment,relative,1,undefined,undefined,1,0,1,0,51,51,0,0,0,51,0,0,0,0,0,0,NA,0,51,0,0,0,NA,51,517,244,04/03/2018 10:34,A template containing a practice and an experimental phase,96,no,800,1280,15.72330189,yes,Exp_10_working.osexp,C:\Users\russe\Dropbox,no,mono,no,32,no,#ffffff,no,I confirm that my participation has been explained and consent to taking part in the experiment,NA,1,yes,800,pf,droid,35,15,9,C:/Users/russe/Dropbox/Exp_10/subject-1.csv,droid,Jazzy James,3.1.7,0,9,NA,1,NA,1,1,NA,9,423,NA,899,NA,710,1327,NA,423,2,legacy,Female,1024,2,48000,-16,experiment,1,odd,droid,4391,NA,NA,42629,43056,8404,10015,NA,42631,21799,NA,NA,NA,NA,2368,NA,NA,43056,NA,9304,20471,NA,42631,Runtime for Android template,34,15741,36,0.2,no,1280,-0.497863675
91.89189189,91.89189189,19,432.0540541,432.0540541,#000000,no,1,droid,legacy,legacy,0,I confirm that my participation has been explained and consent to taking part in the experiment,relative,0,undefined,undefined,0,0,1,0,52,52,0,0,0,52,0,0,0,0,0,0,NA,0,52,0,0,0,NA,52,556,330,04/03/2018 10:34,A template containing a practice and an experimental phase,96,no,800,1280,15.72330189,yes,Exp_10_working.osexp,C:\Users\russe\Dropbox,no,mono,no,32,no,#ffffff,no,I confirm that my participation has been explained and consent to taking part in the experiment,NA,1,yes,800,fe,droid,36,15,8,C:/Users/russe/Dropbox/Exp_10/subject-1.csv,droid,Jazzy James,3.1.7,0,9,NA,1,NA,1,1,NA,9,245,NA,899,NA,710,1327,NA,245,2,legacy,Female,1024,2,48000,-16,experiment,1,odd,droid,4391,NA,NA,43215,43465,8404,10015,NA,43217,21799,NA,NA,NA,NA,2368,NA,NA,43465,NA,9304,20471,NA,43217,Runtime for Android template,34,15986,37,0.33333,no,1280,-2.733682654
92.10526316,92.10526316,19,433.7368421,433.7368421,#000000,no,1,droid,legacy,legacy,0,I confirm that my participation has been explained and consent to taking part in the experiment,relative,1,undefined,undefined,1,0,1,0,53,53,0,0,0,53,0,0,0,0,0,0,NA,0,53,0,0,0,NA,53,1008,302,04/03/2018 10:34,A template containing a practice and an experimental phase,96,no,800,1280,15.72330189,yes,Exp_10_working.osexp,C:\Users\russe\Dropbox,no,mono,no,32,no,#ffffff,no,I confirm that my participation has been explained and consent to taking part in the experiment,NA,1,yes,800,eh,droid,37,15,11,C:/Users/russe/Dropbox/Exp_10/subject-1.csv,droid,Jazzy James,3.1.7,0,11,NA,1,NA,1,1,NA,11,496,NA,899,NA,710,1327,NA,496,2,legacy,Female,1024,2,48000,-16,experiment,1,odd,droid,4391,NA,NA,43612,44112,8404,10015,NA,43614,21799,NA,NA,NA,NA,2368,NA,NA,44112,NA,9304,20471,NA,43614,Runtime for Android template,35,16482,38,0.08333,no,1280,0.419073323
92.30769231,92.30769231,19,435.7948718,435.7948718,#000000,no,1,droid,legacy,legacy,0,I confirm that my participation has been explained and consent to taking part in the experiment,relative,1,undefined,undefined,1,0,1,0,54,54,0,0,0,54,0,0,0,0,0,0,NA,0,54,0,0,0,NA,54,375,632,04/03/2018 10:34,A template containing a practice and an experimental phase,96,no,800,1280,15.72330189,yes,Exp_10_working.osexp,C:\Users\russe\Dropbox,no,mono,no,32,no,#ffffff,no,I confirm that my participation has been explained and consent to taking part in the experiment,NA,1,yes,800,hm,droid,38,15,20,C:/Users/russe/Dropbox/Exp_10/subject-1.csv,droid,Jazzy James,3.1.7,0,20,NA,1,NA,1,1,NA,20,514,NA,899,NA,710,1327,NA,514,2,legacy,Female,1024,2,48000,-16,experiment,1,odd,droid,4391,NA,NA,44714,45232,8404,10015,NA,44716,21799,NA,NA,NA,NA,2368,NA,NA,45232,NA,9304,20471,NA,44716,Runtime for Android template,36,16996,39,0.07692,no,1280,0.645167377
92.5,92.5,19,435.05,435.05,#000000,no,1,droid,legacy,legacy,0,I confirm that my participation has been explained and consent to taking part in the experiment,relative,1,undefined,undefined,1,0,1,0,55,55,0,0,0,55,0,0,0,0,0,0,NA,0,55,0,0,0,NA,55,549,296,04/03/2018 10:34,A template containing a practice and an experimental phase,96,no,800,1280,15.72330189,yes,Exp_10_working.osexp,C:\Users\russe\Dropbox,no,mono,no,32,no,#ffffff,no,I confirm that my participation has been explained and consent to taking part in the experiment,NA,1,yes,800,mf,droid,39,15,9,C:/Users/russe/Dropbox/Exp_10/subject-1.csv,droid,Jazzy James,3.1.7,0,9,NA,1,NA,1,1,NA,9,406,NA,899,NA,710,1327,NA,406,2,legacy,Female,1024,2,48000,-16,experiment,1,odd,droid,4391,NA,NA,45446,45856,8404,10015,NA,45448,21799,NA,NA,NA,NA,2368,NA,NA,45856,NA,9304,20471,NA,45448,Runtime for Android template,37,17402,40,0.11111,no,1280,-0.711396948
92.68292683,92.68292683,19,435.7073171,435.7073171,#000000,no,1,droid,legacy,legacy,0,I confirm that my participation has been explained and consent to taking part in the experiment,relative,1,undefined,undefined,1,0,1,0,56,56,0,0,0,56,0,0,0,0,0,0,NA,0,56,0,0,0,NA,56,353,643,04/03/2018 10:34,A template containing a practice and an experimental phase,96,no,800,1280,15.72330189,yes,Exp_10_working.osexp,C:\Users\russe\Dropbox,no,mono,no,32,no,#ffffff,no,I confirm that my participation has been explained and consent to taking part in the experiment,NA,1,yes,800,fm,droid,40,15,20,C:/Users/russe/Dropbox/Exp_10/subject-1.csv,droid,Jazzy James,3.1.7,0,20,NA,1,NA,1,1,NA,20,462,NA,899,NA,710,1327,NA,462,2,legacy,Female,1024,2,48000,-16,experiment,1,odd,droid,4391,NA,NA,45943,46408,8404,10015,NA,45944,21799,NA,NA,NA,NA,2368,NA,NA,46408,NA,9304,20471,NA,45944,Runtime for Android template,38,17864,41,0.33333,no,1280,-0.007993224
92.85714286,92.85714286,19,435.2619048,435.2619048,#000000,no,1,droid,legacy,legacy,0,I confirm that my participation has been explained and consent to taking part in the experiment,relative,1,undefined,undefined,1,0,1,0,57,57,0,0,0,57,0,0,0,0,0,0,NA,0,57,0,0,0,NA,57,582,680,04/03/2018 10:34,A template containing a practice and an experimental phase,96,no,800,1280,15.72330189,yes,Exp_10_working.osexp,C:\Users\russe\Dropbox,no,mono,no,32,no,#ffffff,no,I confirm that my participation has been explained and consent to taking part in the experiment,NA,1,yes,800,mn,droid,41,15,21,C:/Users/russe/Dropbox/Exp_10/subject-1.csv,droid,Jazzy James,3.1.7,0,21,NA,1,NA,1,1,NA,21,417,NA,899,NA,710,1327,NA,417,2,legacy,Female,1024,2,48000,-16,experiment,1,odd,droid,4391,NA,NA,46619,47040,8404,10015,NA,46621,21799,NA,NA,NA,NA,2368,NA,NA,47040,NA,9304,20471,NA,46621,Runtime for Android template,39,18281,42,0.11111,no,1280,-0.573228359
93.02325581,93.02325581,19,433.7674419,433.7674419,#000000,no,1,droid,legacy,legacy,0,I confirm that my participation has been explained and consent to taking part in the experiment,relative,1,undefined,undefined,1,0,1,0,58,58,0,0,0,58,0,0,0,0,0,0,NA,0,58,0,0,0,NA,58,931,280,04/03/2018 10:34,A template containing a practice and an experimental phase,96,no,800,1280,15.72330189,yes,Exp_10_working.osexp,C:\Users\russe\Dropbox,no,mono,no,32,no,#ffffff,no,I confirm that my participation has been explained and consent to taking part in the experiment,NA,4,yes,800,nh,droid,42,15,11,C:/Users/russe/Dropbox/Exp_10/subject-1.csv,droid,Jazzy James,3.1.7,0,11,NA,1,NA,1,1,NA,11,371,NA,899,NA,710,1327,NA,371,2,legacy,Female,1024,2,48000,-16,experiment,1,odd,droid,4391,NA,NA,47218,47592,8404,10015,NA,47220,21799,NA,NA,NA,NA,2368,NA,NA,47592,NA,9304,20471,NA,47220,Runtime for Android template,40,18652,43,0.8,no,1280,-1.151024275
93.18181818,93.18181818,19,434.0227273,434.0227273,#000000,no,1,droid,legacy,legacy,0,I confirm that my participation has been explained and consent to taking part in the experiment,relative,1,undefined,undefined,1,0,1,0,59,59,0,0,0,59,0,0,0,0,0,0,NA,0,59,0,0,0,NA,59,927,489,04/03/2018 10:34,A template containing a practice and an experimental phase,96,no,800,1280,15.72330189,yes,Exp_10_working.osexp,C:\Users\russe\Dropbox,no,mono,no,32,no,#ffffff,no,I confirm that my participation has been explained and consent to taking part in the experiment,NA,1,yes,800,hl,droid,43,15,17,C:/Users/russe/Dropbox/Exp_10/subject-1.csv,droid,Jazzy James,3.1.7,0,17,NA,1,NA,1,1,NA,17,445,NA,899,NA,710,1327,NA,445,2,legacy,Female,1024,2,48000,-16,experiment,1,odd,droid,4391,NA,NA,48311,48760,8404,10015,NA,48313,21799,NA,NA,NA,NA,2368,NA,NA,48760,NA,9304,20471,NA,48313,Runtime for Android template,41,19097,44,0.07692,no,1280,-0.221526497
93.33333333,93.33333333,19,432.2888889,432.2888889,#000000,no,1,droid,legacy,legacy,0,I confirm that my participation has been explained and consent to taking part in the experiment,relative,1,undefined,undefined,1,0,1,0,60,60,0,0,0,60,0,0,0,0,0,0,NA,0,60,0,0,0,NA,60,738,497,04/03/2018 10:34,A template containing a practice and an experimental phase,96,no,800,1280,15.72330189,yes,Exp_10_working.osexp,C:\Users\russe\Dropbox,no,mono,no,32,no,#ffffff,no,I confirm that my participation has been explained and consent to taking part in the experiment,NA,1,yes,800,lk,droid,44,15,16,C:/Users/russe/Dropbox/Exp_10/subject-1.csv,droid,Jazzy James,3.1.7,0,16,NA,1,NA,1,1,NA,16,356,NA,899,NA,710,1327,NA,356,2,legacy,Female,1024,2,48000,-16,experiment,1,odd,droid,4391,NA,NA,48904,49264,8404,10015,NA,48906,21799,NA,NA,NA,NA,2368,NA,NA,49264,NA,9304,20471,NA,48906,Runtime for Android template,42,19453,45,0.25,no,1280,-1.339435987
93.47826087,93.47826087,19,432.326087,432.326087,#000000,no,1,droid,legacy,legacy,0,I confirm that my participation has been explained and consent to taking part in the experiment,relative,1,undefined,undefined,1,0,1,0,61,61,0,0,0,61,0,0,0,0,0,0,NA,0,61,0,0,0,NA,61,760,527,04/03/2018 10:34,A template containing a practice and an experimental phase,96,no,800,1280,15.72330189,yes,Exp_10_working.osexp,C:\Users\russe\Dropbox,no,mono,no,32,no,#ffffff,no,I confirm that my participation has been explained and consent to taking part in the experiment,NA,1,yes,800,kk,droid,45,15,16,C:/Users/russe/Dropbox/Exp_10/subject-1.csv,droid,Jazzy James,3.1.7,0,16,NA,1,NA,1,1,NA,16,434,NA,899,NA,710,1327,NA,434,2,legacy,Female,1024,2,48000,-16,experiment,1,odd,droid,4391,NA,NA,49402,49840,8404,10015,NA,49404,21799,NA,NA,NA,NA,2368,NA,NA,49840,NA,9304,20471,NA,49404,Runtime for Android template,43,19887,46,0.125,no,1280,-0.359695086
93.61702128,93.61702128,19,431.0638298,431.0638298,#000000,no,1,droid,legacy,legacy,0,I confirm that my participation has been explained and consent to taking part in the experiment,relative,1,undefined,undefined,1,0,1,0,62,62,0,0,0,62,0,0,0,0,0,0,NA,0,62,0,0,0,NA,62,1014,310,04/03/2018 10:34,A template containing a practice and an experimental phase,96,no,800,1280,15.72330189,yes,Exp_10_working.osexp,C:\Users\russe\Dropbox,no,mono,no,32,no,#ffffff,no,I confirm that my participation has been explained and consent to taking part in the experiment,NA,2,yes,800,kh,droid,46,15,11,C:/Users/russe/Dropbox/Exp_10/subject-1.csv,droid,Jazzy James,3.1.7,0,11,NA,1,NA,1,1,NA,11,373,NA,899,NA,710,1327,NA,373,2,legacy,Female,1024,2,48000,-16,experiment,1,odd,droid,4391,NA,NA,50047,50425,8404,10015,NA,50049,21799,NA,NA,NA,NA,2368,NA,NA,50425,NA,9304,20471,NA,50049,Runtime for Android template,44,20260,47,0.25,no,1280,-1.125902714
93.75,93.75,19,431.3958333,431.3958333,#000000,no,1,droid,legacy,legacy,0,I confirm that my participation has been explained and consent to taking part in the experiment,relative,1,undefined,undefined,1,0,1,0,63,63,0,0,0,63,0,0,0,0,0,0,NA,0,63,0,0,0,NA,63,786,162,04/03/2018 10:34,A template containing a practice and an experimental phase,96,no,800,1280,15.72330189,yes,Exp_10_working.osexp,C:\Users\russe\Dropbox,no,mono,no,32,no,#ffffff,no,I confirm that my participation has been explained and consent to taking part in the experiment,NA,1,yes,800,hd,droid,47,15,4,C:/Users/russe/Dropbox/Exp_10/subject-1.csv,droid,Jazzy James,3.1.7,0,4,NA,1,NA,1,1,NA,4,447,NA,899,NA,710,1327,NA,447,2,legacy,Female,1024,2,48000,-16,experiment,1,odd,droid,4391,NA,NA,50581,51032,8404,10015,NA,50583,21799,NA,NA,NA,NA,2368,NA,NA,51032,NA,9304,20471,NA,50583,Runtime for Android template,45,20707,48,0.07692,no,1280,-0.196404936
93.87755102,93.87755102,19,431.7959184,431.7959184,#000000,no,1,droid,legacy,legacy,0,I confirm that my participation has been explained and consent to taking part in the experiment,relative,1,undefined,undefined,1,0,1,0,64,64,0,0,0,64,0,0,0,0,0,0,NA,0,64,0,0,0,NA,64,792,669,04/03/2018 10:34,A template containing a practice and an experimental phase,96,no,800,1280,15.72330189,yes,Exp_10_working.osexp,C:\Users\russe\Dropbox,no,mono,no,32,no,#ffffff,no,I confirm that my participation has been explained and consent to taking part in the experiment,NA,1,yes,800,do,droid,48,15,22,C:/Users/russe/Dropbox/Exp_10/subject-1.csv,droid,Jazzy James,3.1.7,0,22,NA,1,NA,1,1,NA,22,451,NA,899,NA,710,1327,NA,451,2,legacy,Female,1024,2,48000,-16,experiment,1,odd,droid,4391,NA,NA,51185,51640,8404,10015,NA,51187,21799,NA,NA,NA,NA,2368,NA,NA,51640,NA,9304,20471,NA,51187,Runtime for Android template,46,21158,49,0.33333,no,1280,-0.146161813
94,94,19,432.62,432.62,#000000,no,1,droid,legacy,legacy,0,I confirm that my participation has been explained and consent to taking part in the experiment,relative,1,undefined,undefined,1,0,1,0,65,65,0,0,0,65,0,0,0,0,0,0,NA,0,65,0,0,0,NA,65,569,730,04/03/2018 10:34,A template containing a practice and an experimental phase,96,no,800,1280,15.72330189,yes,Exp_10_working.osexp,C:\Users\russe\Dropbox,no,mono,no,32,no,#ffffff,no,I confirm that my participation has been explained and consent to taking part in the experiment,NA,1,yes,800,on,droid,49,15,21,C:/Users/russe/Dropbox/Exp_10/subject-1.csv,droid,Jazzy James,3.1.7,0,21,NA,1,NA,1,1,NA,21,473,NA,899,NA,710,1327,NA,473,2,legacy,Female,1024,2,48000,-16,experiment,1,odd,droid,4391,NA,NA,51747,52224,8404,10015,NA,51749,21799,NA,NA,NA,NA,2368,NA,NA,52224,NA,9304,20471,NA,51749,Runtime for Android template,47,21631,50,0.0625,no,1280,0.130175364
94.11764706,94.11764706,19,431.4705882,431.4705882,#000000,no,1,droid,legacy,legacy,0,I confirm that my participation has been explained and consent to taking part in the experiment,relative,1,undefined,undefined,1,0,1,0,66,66,0,0,0,66,0,0,0,0,0,0,NA,0,66,0,0,0,NA,66,748,530,04/03/2018 10:34,A template containing a practice and an experimental phase,96,no,800,1280,15.72330189,yes,Exp_10_working.osexp,C:\Users\russe\Dropbox,no,mono,no,32,no,#ffffff,no,I confirm that my participation has been explained and consent to taking part in the experiment,NA,1,yes,800,nk,droid,50,15,16,C:/Users/russe/Dropbox/Exp_10/subject-1.csv,droid,Jazzy James,3.1.7,0,16,NA,1,NA,1,1,NA,16,374,NA,899,NA,710,1327,NA,374,2,legacy,Female,1024,2,48000,-16,experiment,1,odd,droid,4391,NA,NA,52358,52736,8404,10015,NA,52360,21799,NA,NA,NA,NA,2368,NA,NA,52736,NA,9304,20471,NA,52360,Runtime for Android template,48,22005,51,0.2,no,1280,-1.113341933
94.23076923,94.23076923,19,431.3653846,431.3653846,#000000,no,1,droid,legacy,legacy,0,I confirm that my participation has been explained and consent to taking part in the experiment,relative,1,undefined,undefined,1,0,1,0,67,67,0,0,0,67,0,0,0,0,0,0,NA,0,67,0,0,0,NA,67,365,313,04/03/2018 10:34,A template containing a practice and an experimental phase,96,no,800,1280,15.72330189,yes,Exp_10_working.osexp,C:\Users\russe\Dropbox,no,mono,no,32,no,#ffffff,no,I confirm that my participation has been explained and consent to taking part in the experiment,NA,1,yes,800,ke,droid,51,15,8,C:/Users/russe/Dropbox/Exp_10/subject-1.csv,droid,Jazzy James,3.1.7,0,8,NA,1,NA,1,1,NA,8,426,NA,899,NA,710,1327,NA,426,2,legacy,Female,1024,2,48000,-16,experiment,1,odd,droid,4391,NA,NA,52938,53368,8404,10015,NA,52940,21799,NA,NA,NA,NA,2368,NA,NA,53368,NA,9304,20471,NA,52940,Runtime for Android template,49,22431,52,0.125,no,1280,-0.460181332
94.33962264,94.33962264,19,431.8679245,431.8679245,#000000,no,1,droid,legacy,legacy,0,I confirm that my participation has been explained and consent to taking part in the experiment,relative,1,undefined,undefined,1,0,1,0,68,68,0,0,0,68,0,0,0,0,0,0,NA,0,68,0,0,0,NA,68,733,620,04/03/2018 10:34,A template containing a practice and an experimental phase,96,no,800,1280,15.72330189,yes,Exp_10_working.osexp,C:\Users\russe\Dropbox,no,mono,no,32,no,#ffffff,no,I confirm that my participation has been explained and consent to taking part in the experiment,NA,1,yes,800,eo,droid,52,15,22,C:/Users/russe/Dropbox/Exp_10/subject-1.csv,droid,Jazzy James,3.1.7,0,22,NA,1,NA,1,1,NA,22,458,NA,899,NA,710,1327,NA,458,2,legacy,Female,1024,2,48000,-16,experiment,1,odd,droid,4391,NA,NA,53530,53992,8404,10015,NA,53532,21799,NA,NA,NA,NA,2368,NA,NA,53992,NA,9304,20471,NA,53532,Runtime for Android template,50,22889,53,0.08333,no,1280,-0.058236347
94.44444444,94.44444444,19,432.037037,432.037037,#000000,no,1,droid,legacy,legacy,0,I confirm that my participation has been explained and consent to taking part in the experiment,relative,1,undefined,undefined,1,0,1,0,69,69,0,0,0,69,0,0,0,0,0,0,NA,0,69,0,0,0,NA,69,337,2,04/03/2018 10:34,A template containing a practice and an experimental phase,96,no,800,1280,15.72330189,yes,Exp_10_working.osexp,C:\Users\russe\Dropbox,no,mono,no,32,no,#ffffff,no,I confirm that my participation has been explained and consent to taking part in the experiment,NA,4,yes,800,oa,droid,53,15,2,C:/Users/russe/Dropbox/Exp_10/subject-1.csv,droid,Jazzy James,3.1.7,0,2,NA,1,NA,1,1,NA,2,441,NA,899,NA,710,1327,NA,441,2,legacy,Female,1024,2,48000,-16,experiment,1,odd,droid,4391,NA,NA,54187,54632,8404,10015,NA,54189,21799,NA,NA,NA,NA,2368,NA,NA,54632,NA,9304,20471,NA,54189,Runtime for Android template,51,23330,54,0.25,no,1280,-0.271769621
94.54545455,94.54545455,19,431.8545455,431.8545455,#000000,no,1,droid,legacy,legacy,0,I confirm that my participation has been explained and consent to taking part in the experiment,relative,1,undefined,undefined,1,0,1,0,70,70,0,0,0,70,0,0,0,0,0,0,NA,0,70,0,0,0,NA,70,328,361,04/03/2018 10:34,A template containing a practice and an experimental phase,96,no,800,1280,15.72330189,yes,Exp_10_working.osexp,C:\Users\russe\Dropbox,no,mono,no,32,no,#ffffff,no,I confirm that my participation has been explained and consent to taking part in the experiment,NA,1,yes,800,ae,droid,54,15,8,C:/Users/russe/Dropbox/Exp_10/subject-1.csv,droid,Jazzy James,3.1.7,0,8,NA,1,NA,1,1,NA,8,422,NA,899,NA,710,1327,NA,422,2,legacy,Female,1024,2,48000,-16,experiment,1,odd,droid,4391,NA,NA,54734,55160,8404,10015,NA,54735,21799,NA,NA,NA,NA,2368,NA,NA,55160,NA,9304,20471,NA,54736,Runtime for Android template,52,23752,55,0.16667,no,1280,-0.510424455
94.64285714,94.64285714,19,431.7678571,431.7678571,#000000,no,1,droid,legacy,legacy,0,I confirm that my participation has been explained and consent to taking part in the experiment,relative,1,undefined,undefined,1,0,1,0,71,71,0,0,0,71,0,0,0,0,0,0,NA,0,71,0,0,0,NA,71,335,690,04/03/2018 10:34,A template containing a practice and an experimental phase,96,no,800,1280,15.72330189,yes,Exp_10_working.osexp,C:\Users\russe\Dropbox,no,mono,no,32,no,#ffffff,no,I confirm that my participation has been explained and consent to taking part in the experiment,NA,1,yes,800,em,droid,55,15,20,C:/Users/russe/Dropbox/Exp_10/subject-1.csv,droid,Jazzy James,3.1.7,0,20,NA,1,NA,1,1,NA,20,427,NA,899,NA,710,1327,NA,427,2,legacy,Female,1024,2,48000,-16,experiment,1,odd,droid,4391,NA,NA,55401,55832,8404,10015,NA,55403,21799,NA,NA,NA,NA,2368,NA,NA,55832,NA,9304,20471,NA,55403,Runtime for Android template,53,24179,56,0.08333,no,1280,-0.447620552
94.73684211,94.73684211,19,431.8070175,431.8070175,#000000,no,1,droid,legacy,legacy,0,I confirm that my participation has been explained and consent to taking part in the experiment,relative,1,undefined,undefined,1,0,1,0,72,72,0,0,0,72,0,0,0,0,0,0,NA,0,72,0,0,0,NA,72,809,720,04/03/2018 10:34,A template containing a practice and an experimental phase,96,no,800,1280,15.72330189,yes,Exp_10_working.osexp,C:\Users\russe\Dropbox,no,mono,no,32,no,#ffffff,no,I confirm that my participation has been explained and consent to taking part in the experiment,NA,2,yes,800,mo,droid,56,15,22,C:/Users/russe/Dropbox/Exp_10/subject-1.csv,droid,Jazzy James,3.1.7,0,22,NA,1,NA,1,1,NA,22,434,NA,899,NA,710,1327,NA,434,2,legacy,Female,1024,2,48000,-16,experiment,1,odd,droid,4391,NA,NA,55970,56408,8404,10015,NA,55972,21799,NA,NA,NA,NA,2368,NA,NA,56408,NA,9304,20471,NA,55972,Runtime for Android template,54,24613,57,0.22222,no,1280,-0.359695086
94.82758621,94.82758621,19,432.2758621,432.2758621,#000000,no,1,droid,legacy,legacy,0,I confirm that my participation has been explained and consent to taking part in the experiment,relative,1,undefined,undefined,1,0,1,0,73,73,0,0,0,73,0,0,0,0,0,0,NA,0,73,0,0,0,NA,73,729,658,04/03/2018 10:34,A template containing a practice and an experimental phase,96,no,800,1280,15.72330189,yes,Exp_10_working.osexp,C:\Users\russe\Dropbox,no,mono,no,32,no,#ffffff,no,I confirm that my participation has been explained and consent to taking part in the experiment,NA,1,yes,800,oo,droid,57,15,22,C:/Users/russe/Dropbox/Exp_10/subject-1.csv,droid,Jazzy James,3.1.7,0,22,NA,1,NA,1,1,NA,22,459,NA,899,NA,710,1327,NA,459,2,legacy,Female,1024,2,48000,-16,experiment,1,odd,droid,4391,NA,NA,56585,57048,8404,10015,NA,56587,21799,NA,NA,NA,NA,2368,NA,NA,57048,NA,9304,20471,NA,56587,Runtime for Android template,55,25072,58,0.0625,no,1280,-0.045675566
94.91525424,94.91525424,19,431.9830508,431.9830508,#000000,no,1,droid,legacy,legacy,0,I confirm that my participation has been explained and consent to taking part in the experiment,relative,1,undefined,undefined,1,0,1,0,74,74,0,0,0,74,0,0,0,0,0,0,NA,0,74,0,0,0,NA,74,916,663,04/03/2018 10:34,A template containing a practice and an experimental phase,96,no,800,1280,15.72330189,yes,Exp_10_working.osexp,C:\Users\russe\Dropbox,no,mono,no,32,no,#ffffff,no,I confirm that my participation has been explained and consent to taking part in the experiment,NA,1,yes,800,op,droid,58,15,23,C:/Users/russe/Dropbox/Exp_10/subject-1.csv,droid,Jazzy James,3.1.7,0,23,NA,1,NA,1,1,NA,23,415,NA,899,NA,710,1327,NA,415,2,legacy,Female,1024,2,48000,-16,experiment,1,odd,droid,4391,NA,NA,57213,57632,8404,10015,NA,57215,21799,NA,NA,NA,NA,2368,NA,NA,57633,NA,9304,20471,NA,57215,Runtime for Android template,56,25487,59,0.0625,no,1280,-0.598349921
93.33333333,93.33333333,19,433.35,433.35,#000000,no,1,droid,legacy,legacy,0,I confirm that my participation has been explained and consent to taking part in the experiment,relative,0,undefined,undefined,0,0,1,0,75,75,0,0,0,75,0,0,0,0,0,0,NA,0,75,0,0,0,NA,75,589,331,04/03/2018 10:34,A template containing a practice and an experimental phase,96,no,800,1280,15.72330189,yes,Exp_10_working.osexp,C:\Users\russe\Dropbox,no,mono,no,32,no,#ffffff,no,I confirm that my participation has been explained and consent to taking part in the experiment,NA,1,yes,800,pg,droid,59,15,10,C:/Users/russe/Dropbox/Exp_10/subject-1.csv,droid,Jazzy James,3.1.7,0,9,NA,1,NA,1,1,NA,9,514,NA,899,NA,710,1327,NA,514,2,legacy,Female,1024,2,48000,-16,experiment,1,odd,droid,4391,NA,NA,57874,58392,8404,10015,NA,57876,21799,NA,NA,NA,NA,2368,NA,NA,58392,NA,9304,20471,NA,57876,Runtime for Android template,56,26001,60,0.2,no,1280,0.645167377
93.44262295,93.44262295,19,434.5081967,434.5081967,#000000,no,1,droid,legacy,legacy,0,I confirm that my participation has been explained and consent to taking part in the experiment,relative,1,undefined,undefined,1,0,1,0,76,76,0,0,0,76,0,0,0,0,0,0,NA,0,76,0,0,0,NA,76,399,676,04/03/2018 10:34,A template containing a practice and an experimental phase,96,no,800,1280,15.72330189,yes,Exp_10_working.osexp,C:\Users\russe\Dropbox,no,mono,no,32,no,#ffffff,no,I confirm that my participation has been explained and consent to taking part in the experiment,NA,1,yes,800,gm,droid,60,15,20,C:/Users/russe/Dropbox/Exp_10/subject-1.csv,droid,Jazzy James,3.1.7,0,20,NA,1,NA,1,1,NA,20,504,NA,899,NA,710,1327,NA,504,2,legacy,Female,1024,2,48000,-16,experiment,1,odd,droid,4391,NA,NA,58589,59097,8404,10015,NA,58591,21799,NA,NA,NA,NA,2368,NA,NA,59097,NA,9304,20471,NA,58591,Runtime for Android template,57,26505,61,0.2,no,1280,0.519559569
93.5483871,93.5483871,19,433.4032258,433.4032258,#000000,no,1,droid,legacy,legacy,0,I confirm that my participation has been explained and consent to taking part in the experiment,relative,1,undefined,undefined,1,0,1,0,77,77,0,0,0,77,0,0,0,0,0,0,NA,0,77,0,0,0,NA,77,295,309,04/03/2018 10:34,A template containing a practice and an experimental phase,96,no,800,1280,15.72330189,yes,Exp_10_working.osexp,C:\Users\russe\Dropbox,no,mono,no,32,no,#ffffff,no,I confirm that my participation has been explained and consent to taking part in the experiment,NA,2,yes,800,me,droid,61,15,8,C:/Users/russe/Dropbox/Exp_10/subject-1.csv,droid,Jazzy James,3.1.7,0,8,NA,1,NA,1,1,NA,8,366,NA,899,NA,710,1327,NA,366,2,legacy,Female,1024,2,48000,-16,experiment,1,odd,droid,4391,NA,NA,59302,59672,8404,10015,NA,59304,21799,NA,NA,NA,NA,2368,NA,NA,59672,NA,9304,20471,NA,59304,Runtime for Android template,58,26871,62,0.22222,no,1280,-1.213828179
93.65079365,93.65079365,19,432.6984127,432.6984127,#000000,no,1,droid,legacy,legacy,0,I confirm that my participation has been explained and consent to taking part in the experiment,relative,1,undefined,undefined,1,0,1,0,78,78,0,0,0,78,0,0,0,0,0,0,NA,0,78,0,0,0,NA,78,659,157,04/03/2018 10:34,A template containing a practice and an experimental phase,96,no,800,1280,15.72330189,yes,Exp_10_working.osexp,C:\Users\russe\Dropbox,no,mono,no,32,no,#ffffff,no,I confirm that my participation has been explained and consent to taking part in the experiment,NA,1,yes,800,ed,droid,62,15,4,C:/Users/russe/Dropbox/Exp_10/subject-1.csv,droid,Jazzy James,3.1.7,0,4,NA,1,NA,1,1,NA,4,389,NA,899,NA,710,1327,NA,389,2,legacy,Female,1024,2,48000,-16,experiment,1,odd,droid,4391,NA,NA,59895,60288,8404,10015,NA,59897,21799,NA,NA,NA,NA,2368,NA,NA,60288,NA,9304,20471,NA,59897,Runtime for Android template,59,27260,63,0.83333,no,1280,-0.924930221
93.75,93.75,19,435.09375,435.09375,#000000,no,1,droid,legacy,legacy,0,I confirm that my participation has been explained and consent to taking part in the experiment,relative,1,undefined,undefined,1,0,1,0,79,79,0,0,0,79,0,0,0,0,0,0,NA,0,79,0,0,0,NA,79,311,165,04/03/2018 10:34,A template containing a practice and an experimental phase,96,no,800,1280,15.72330189,yes,Exp_10_working.osexp,C:\Users\russe\Dropbox,no,mono,no,32,no,#ffffff,no,I confirm that my participation has been explained and consent to taking part in the experiment,NA,1,yes,800,da,droid,63,15,2,C:/Users/russe/Dropbox/Exp_10/subject-1.csv,droid,Jazzy James,3.1.7,0,2,NA,1,NA,1,1,NA,2,586,NA,899,NA,710,1327,NA,586,2,legacy,Female,1024,2,48000,-16,experiment,1,odd,droid,4391,NA,NA,60858,61448,8404,10015,NA,60860,21799,NA,NA,NA,NA,2368,NA,NA,61448,NA,9304,20471,NA,60860,Runtime for Android template,60,27846,64,0.33333,no,1280,1.549543593
93.84615385,93.84615385,19,434.8461538,434.8461538,#000000,no,1,droid,legacy,legacy,0,I confirm that my participation has been explained and consent to taking part in the experiment,relative,1,undefined,undefined,1,0,1,0,80,80,0,0,0,80,0,0,0,0,0,0,NA,0,80,0,0,0,NA,80,488,34,04/03/2018 10:34,A template containing a practice and an experimental phase,96,no,800,1280,15.72330189,yes,Exp_10_working.osexp,C:\Users\russe\Dropbox,no,mono,no,32,no,#ffffff,no,I confirm that my participation has been explained and consent to taking part in the experiment,NA,2,yes,800,ab,droid,64,15,3,C:/Users/russe/Dropbox/Exp_10/subject-1.csv,droid,Jazzy James,3.1.7,0,3,NA,1,NA,1,1,NA,3,419,NA,899,NA,710,1327,NA,419,2,legacy,Female,1024,2,48000,-16,experiment,1,odd,droid,4391,NA,NA,61609,62032,8404,10015,NA,61611,21799,NA,NA,NA,NA,2368,NA,NA,62032,NA,9304,20471,NA,61611,Runtime for Android template,61,28265,65,0.33333,no,1280,-0.548106798
92.42424242,92.42424242,19,435.7575758,435.7575758,#000000,no,1,droid,legacy,legacy,0,I confirm that my participation has been explained and consent to taking part in the experiment,relative,0,undefined,undefined,0,0,1,0,81,81,0,0,0,81,0,0,0,0,0,0,NA,0,81,0,0,0,NA,81,838,523,04/03/2018 10:34,A template containing a practice and an experimental phase,96,no,800,1280,15.72330189,yes,Exp_10_working.osexp,C:\Users\russe\Dropbox,no,mono,no,32,no,#ffffff,no,I confirm that my participation has been explained and consent to taking part in the experiment,NA,1,yes,800,bp,droid,65,15,23,C:/Users/russe/Dropbox/Exp_10/subject-1.csv,droid,Jazzy James,3.1.7,0,16,NA,1,NA,1,1,NA,16,495,NA,899,NA,710,1327,NA,495,2,legacy,Female,1024,2,48000,-16,experiment,1,odd,droid,4391,NA,NA,62118,62616,8404,10015,NA,62119,21799,NA,NA,NA,NA,2368,NA,NA,62616,NA,9304,20471,NA,62119,Runtime for Android template,61,28760,66,0.125,no,1280,0.406512542
92.53731343,92.53731343,19,436.641791,436.641791,#000000,no,1,droid,legacy,legacy,0,I confirm that my participation has been explained and consent to taking part in the experiment,relative,1,undefined,undefined,1,0,1,0,82,82,0,0,0,82,0,0,0,0,0,0,NA,0,82,0,0,0,NA,82,350,365,04/03/2018 10:34,A template containing a practice and an experimental phase,96,no,800,1280,15.72330189,yes,Exp_10_working.osexp,C:\Users\russe\Dropbox,no,mono,no,32,no,#ffffff,no,I confirm that my participation has been explained and consent to taking part in the experiment,NA,1,yes,800,pe,droid,66,15,8,C:/Users/russe/Dropbox/Exp_10/subject-1.csv,droid,Jazzy James,3.1.7,0,8,NA,1,NA,1,1,NA,8,495,NA,899,NA,710,1327,NA,495,2,legacy,Female,1024,2,48000,-16,experiment,1,odd,droid,4391,NA,NA,62823,63321,8404,10015,NA,62824,21799,NA,NA,NA,NA,2368,NA,NA,63321,NA,9304,20471,NA,62824,Runtime for Android template,62,29255,67,0.2,no,1280,0.406512542
92.64705882,92.64705882,19,438.6029412,438.6029412,#000000,no,1,droid,legacy,legacy,0,I confirm that my participation has been explained and consent to taking part in the experiment,relative,1,undefined,undefined,1,0,1,0,83,83,0,0,0,83,0,0,0,0,0,0,NA,0,83,0,0,0,NA,83,368,359,04/03/2018 10:34,A template containing a practice and an experimental phase,96,no,800,1280,15.72330189,yes,Exp_10_working.osexp,C:\Users\russe\Dropbox,no,mono,no,32,no,#ffffff,no,I confirm that my participation has been explained and consent to taking part in the experiment,NA,2,yes,800,ee,droid,67,15,8,C:/Users/russe/Dropbox/Exp_10/subject-1.csv,droid,Jazzy James,3.1.7,0,8,NA,1,NA,1,1,NA,8,570,NA,899,NA,710,1327,NA,570,2,legacy,Female,1024,2,48000,-16,experiment,1,odd,droid,4391,NA,NA,63490,64064,8404,10015,NA,63492,21799,NA,NA,NA,NA,2368,NA,NA,64064,NA,9304,20471,NA,63492,Runtime for Android template,63,29825,68,0.16667,no,1280,1.348571101
92.75362319,92.75362319,19,439.5652174,439.5652174,#000000,no,1,droid,legacy,legacy,0,I confirm that my participation has been explained and consent to taking part in the experiment,relative,1,undefined,undefined,1,0,1,0,84,84,0,0,0,84,0,0,0,0,0,0,NA,0,84,0,0,0,NA,84,557,149,04/03/2018 10:34,A template containing a practice and an experimental phase,96,no,800,1280,15.72330189,yes,Exp_10_working.osexp,C:\Users\russe\Dropbox,no,mono,no,32,no,#ffffff,no,I confirm that my participation has been explained and consent to taking part in the experiment,NA,1,yes,800,eb,droid,68,15,3,C:/Users/russe/Dropbox/Exp_10/subject-1.csv,droid,Jazzy James,3.1.7,0,3,NA,1,NA,1,1,NA,3,505,NA,899,NA,710,1327,NA,505,2,legacy,Female,1024,2,48000,-16,experiment,1,odd,droid,4391,NA,NA,64227,64736,8404,10015,NA,64229,21799,NA,NA,NA,NA,2368,NA,NA,64736,NA,9304,20471,NA,64229,Runtime for Android template,64,30330,69,0.08333,no,1280,0.53212035
92.85714286,92.85714286,19,439.8428571,439.8428571,#000000,no,1,droid,legacy,legacy,0,I confirm that my participation has been explained and consent to taking part in the experiment,relative,1,undefined,undefined,1,0,1,0,85,85,0,0,0,85,0,0,0,0,0,0,NA,0,85,0,0,0,NA,85,393,278,04/03/2018 10:34,A template containing a practice and an experimental phase,96,no,800,1280,15.72330189,yes,Exp_10_working.osexp,C:\Users\russe\Dropbox,no,mono,no,32,no,#ffffff,no,I confirm that my participation has been explained and consent to taking part in the experiment,NA,1,yes,800,be,droid,69,15,8,C:/Users/russe/Dropbox/Exp_10/subject-1.csv,droid,Jazzy James,3.1.7,0,8,NA,1,NA,1,1,NA,8,459,NA,899,NA,710,1327,NA,459,2,legacy,Female,1024,2,48000,-16,experiment,1,odd,droid,4391,NA,NA,64825,65288,8404,10015,NA,64827,21799,NA,NA,NA,NA,2368,NA,NA,65288,NA,9304,20471,NA,64827,Runtime for Android template,65,30789,70,0.125,no,1280,-0.045675566
92.95774648,92.95774648,19,439.9295775,439.9295775,#000000,no,1,droid,legacy,legacy,0,I confirm that my participation has been explained and consent to taking part in the experiment,relative,1,undefined,undefined,1,0,1,0,86,86,0,0,0,86,0,0,0,0,0,0,NA,0,86,0,0,0,NA,86,547,67,04/03/2018 10:34,A template containing a practice and an experimental phase,96,no,800,1280,15.72330189,yes,Exp_10_working.osexp,C:\Users\russe\Dropbox,no,mono,no,32,no,#ffffff,no,I confirm that my participation has been explained and consent to taking part in the experiment,NA,2,yes,800,bb,droid,70,15,3,C:/Users/russe/Dropbox/Exp_10/subject-1.csv,droid,Jazzy James,3.1.7,0,3,NA,1,NA,1,1,NA,3,446,NA,899,NA,710,1327,NA,446,2,legacy,Female,1024,2,48000,-16,experiment,1,odd,droid,4391,NA,NA,65494,65944,8404,10015,NA,65496,21799,NA,NA,NA,NA,2368,NA,NA,65944,NA,9304,20471,NA,65496,Runtime for Android template,66,31235,71,0.25,no,1280,-0.208965717
93.05555556,93.05555556,19,440.125,440.125,#000000,no,1,droid,legacy,legacy,0,I confirm that my participation has been explained and consent to taking part in the experiment,relative,1,undefined,undefined,1,0,1,0,87,87,0,0,0,87,0,0,0,0,0,0,NA,0,87,0,0,0,NA,87,751,70,04/03/2018 10:34,A template containing a practice and an experimental phase,96,no,800,1280,15.72330189,yes,Exp_10_working.osexp,C:\Users\russe\Dropbox,no,mono,no,32,no,#ffffff,no,I confirm that my participation has been explained and consent to taking part in the experiment,NA,1,yes,800,bc,droid,71,15,4,C:/Users/russe/Dropbox/Exp_10/subject-1.csv,droid,Jazzy James,3.1.7,0,4,NA,1,NA,1,1,NA,4,454,NA,899,NA,710,1327,NA,454,2,legacy,Female,1024,2,48000,-16,experiment,1,odd,droid,4391,NA,NA,66031,66488,8404,10015,NA,66032,21799,NA,NA,NA,NA,2368,NA,NA,66488,NA,9304,20471,NA,66032,Runtime for Android template,67,31689,72,0.125,no,1280,-0.10847947
93.15068493,93.15068493,19,440.1780822,440.1780822,#000000,no,1,droid,legacy,legacy,0,I confirm that my participation has been explained and consent to taking part in the experiment,relative,1,undefined,undefined,1,0,1,0,88,88,0,0,0,88,0,0,0,0,0,0,NA,0,88,0,0,0,NA,88,752,632,04/03/2018 10:34,A template containing a practice and an experimental phase,96,no,800,1280,15.72330189,yes,Exp_10_working.osexp,C:\Users\russe\Dropbox,no,mono,no,32,no,#ffffff,no,I confirm that my participation has been explained and consent to taking part in the experiment,NA,3,yes,800,co,droid,72,15,22,C:/Users/russe/Dropbox/Exp_10/subject-1.csv,droid,Jazzy James,3.1.7,0,22,NA,1,NA,1,1,NA,22,444,NA,899,NA,710,1327,NA,444,2,legacy,Female,1024,2,48000,-16,experiment,1,odd,droid,4391,NA,NA,66663,67112,8404,10015,NA,66665,21799,NA,NA,NA,NA,2368,NA,NA,67112,NA,9304,20471,NA,66666,Runtime for Android template,68,32133,73,0.3,no,1280,-0.234087278
93.24324324,93.24324324,19,442.3513514,442.3513514,#000000,no,1,droid,legacy,legacy,0,I confirm that my participation has been explained and consent to taking part in the experiment,relative,1,undefined,undefined,1,0,1,0,89,89,0,0,0,89,0,0,0,0,0,0,NA,0,89,0,0,0,NA,89,296,164,04/03/2018 10:34,A template containing a practice and an experimental phase,96,no,800,1280,15.72330189,yes,Exp_10_working.osexp,C:\Users\russe\Dropbox,no,mono,no,32,no,#ffffff,no,I confirm that my participation has been explained and consent to taking part in the experiment,NA,4,yes,800,oa,droid,73,15,2,C:/Users/russe/Dropbox/Exp_10/subject-1.csv,droid,Jazzy James,3.1.7,0,2,NA,1,NA,1,1,NA,2,601,NA,899,NA,710,1327,NA,601,2,legacy,Female,1024,2,48000,-16,experiment,1,odd,droid,4391,NA,NA,67372,67976,8404,10015,NA,67374,21799,NA,NA,NA,NA,2368,NA,NA,67976,NA,9304,20471,NA,67374,Runtime for Android template,69,32734,74,0.25,no,1280,1.737955305
93.33333333,93.33333333,19,446.6133333,446.6133333,#000000,no,1,droid,legacy,legacy,0,I confirm that my participation has been explained and consent to taking part in the experiment,relative,1,undefined,undefined,1,0,1,0,90,90,0,0,0,90,0,0,0,0,0,0,NA,0,90,0,0,0,NA,90,720,661,04/03/2018 10:34,A template containing a practice and an experimental phase,96,no,800,1280,15.72330189,yes,Exp_10_working.osexp,C:\Users\russe\Dropbox,no,mono,no,32,no,#ffffff,no,I confirm that my participation has been explained and consent to taking part in the experiment,NA,2,yes,800,ao,droid,74,15,22,C:/Users/russe/Dropbox/Exp_10/subject-1.csv,droid,Jazzy James,3.1.7,0,22,NA,1,NA,1,1,NA,22,762,NA,899,NA,710,1327,NA,762,2,legacy,Female,1024,2,48000,-16,experiment,1,odd,droid,4391,NA,NA,68178,68944,8404,10015,NA,68180,21799,NA,NA,NA,NA,2368,NA,NA,68945,NA,9304,20471,NA,68180,Runtime for Android template,70,33496,75,0.33333,no,1280,3.760241011
93.42105263,93.42105263,19,448.3421053,448.3421053,#000000,no,1,droid,legacy,legacy,0,I confirm that my participation has been explained and consent to taking part in the experiment,relative,1,undefined,undefined,1,0,1,0,91,91,0,0,0,91,0,0,0,0,0,0,NA,0,91,0,0,0,NA,91,708,103,04/03/2018 10:34,A template containing a practice and an experimental phase,96,no,800,1280,15.72330189,yes,Exp_10_working.osexp,C:\Users\russe\Dropbox,no,mono,no,32,no,#ffffff,no,I confirm that my participation has been explained and consent to taking part in the experiment,NA,2,yes,800,oc,droid,75,15,4,C:/Users/russe/Dropbox/Exp_10/subject-1.csv,droid,Jazzy James,3.1.7,0,4,NA,1,NA,1,1,NA,4,578,NA,899,NA,710,1327,NA,578,2,legacy,Female,1024,2,48000,-16,experiment,1,odd,droid,4391,NA,NA,69122,69704,8404,10015,NA,69124,21799,NA,NA,NA,NA,2368,NA,NA,69704,NA,9304,20471,NA,69124,Runtime for Android template,71,34074,76,0.125,no,1280,1.449057347
93.50649351,93.50649351,19,447.7272727,447.7272727,#000000,no,1,droid,legacy,legacy,0,I confirm that my participation has been explained and consent to taking part in the experiment,relative,1,undefined,undefined,1,0,1,0,92,92,0,0,0,92,0,0,0,0,0,0,NA,0,92,0,0,0,NA,92,702,547,04/03/2018 10:34,A template containing a practice and an experimental phase,96,no,800,1280,15.72330189,yes,Exp_10_working.osexp,C:\Users\russe\Dropbox,no,mono,no,32,no,#ffffff,no,I confirm that my participation has been explained and consent to taking part in the experiment,NA,1,yes,800,ck,droid,76,15,16,C:/Users/russe/Dropbox/Exp_10/subject-1.csv,droid,Jazzy James,3.1.7,0,16,NA,1,NA,1,1,NA,16,401,NA,899,NA,710,1327,NA,401,2,legacy,Female,1024,2,48000,-16,experiment,1,odd,droid,4391,NA,NA,69811,70216,8404,10015,NA,69813,21799,NA,NA,NA,NA,2368,NA,NA,70217,NA,9304,20471,NA,69813,Runtime for Android template,72,34475,77,0.1,no,1280,-0.774200852
93.58974359,93.58974359,19,446.9615385,446.9615385,#000000,no,1,droid,legacy,legacy,0,I confirm that my participation has been explained and consent to taking part in the experiment,relative,1,undefined,undefined,1,0,1,0,93,93,0,0,0,93,0,0,0,0,0,0,NA,0,93,0,0,0,NA,93,757,385,04/03/2018 10:34,A template containing a practice and an experimental phase,96,no,800,1280,15.72330189,yes,Exp_10_working.osexp,C:\Users\russe\Dropbox,no,mono,no,32,no,#ffffff,no,I confirm that my participation has been explained and consent to taking part in the experiment,NA,1,yes,800,kg,droid,77,15,10,C:/Users/russe/Dropbox/Exp_10/subject-1.csv,droid,Jazzy James,3.1.7,0,10,NA,1,NA,1,1,NA,10,388,NA,899,NA,710,1327,NA,388,2,legacy,Female,1024,2,48000,-16,experiment,1,odd,droid,4391,NA,NA,70393,70784,8404,10015,NA,70394,21799,NA,NA,NA,NA,2368,NA,NA,70784,NA,9304,20471,NA,70394,Runtime for Android template,73,34863,78,0.125,no,1280,-0.937491002
93.67088608,93.67088608,19,446.7468354,446.7468354,#000000,no,1,droid,legacy,legacy,0,I confirm that my participation has been explained and consent to taking part in the experiment,relative,1,undefined,undefined,1,0,1,0,94,94,0,0,0,94,0,0,0,0,0,0,NA,0,94,0,0,0,NA,94,571,682,04/03/2018 10:34,A template containing a practice and an experimental phase,96,no,800,1280,15.72330189,yes,Exp_10_working.osexp,C:\Users\russe\Dropbox,no,mono,no,32,no,#ffffff,no,I confirm that my participation has been explained and consent to taking part in the experiment,NA,1,yes,800,gn,droid,78,15,21,C:/Users/russe/Dropbox/Exp_10/subject-1.csv,droid,Jazzy James,3.1.7,0,21,NA,1,NA,1,1,NA,21,430,NA,899,NA,710,1327,NA,430,2,legacy,Female,1024,2,48000,-16,experiment,1,odd,droid,4391,NA,NA,70877,71312,8404,10015,NA,70880,21799,NA,NA,NA,NA,2368,NA,NA,71312,NA,9304,20471,NA,70880,Runtime for Android template,74,35293,79,0.2,no,1280,-0.409938209
93.75,93.75,19,445.875,445.875,#000000,no,1,droid,legacy,legacy,0,I confirm that my participation has been explained and consent to taking part in the experiment,relative,1,undefined,undefined,1,0,1,0,95,95,0,0,0,95,0,0,0,0,0,0,NA,0,95,0,0,0,NA,95,931,348,04/03/2018 10:34,A template containing a practice and an experimental phase,96,no,800,1280,15.72330189,yes,Exp_10_working.osexp,C:\Users\russe\Dropbox,no,mono,no,32,no,#ffffff,no,I confirm that my participation has been explained and consent to taking part in the experiment,NA,4,yes,800,nh,droid,79,15,11,C:/Users/russe/Dropbox/Exp_10/subject-1.csv,droid,Jazzy James,3.1.7,0,11,NA,1,NA,1,1,NA,11,377,NA,899,NA,710,1327,NA,377,2,legacy,Female,1024,2,48000,-16,experiment,1,odd,droid,4391,NA,NA,71475,71856,8404,10015,NA,71477,21799,NA,NA,NA,NA,2368,NA,NA,71856,NA,9304,20471,NA,71477,Runtime for Android template,75,35670,80,0.8,no,1280,-1.075659591
93.82716049,93.82716049,19,447.7160494,447.7160494,#000000,no,1,droid,legacy,legacy,0,I confirm that my participation has been explained and consent to taking part in the experiment,relative,1,undefined,undefined,1,0,1,0,96,96,0,0,0,96,0,0,0,0,0,0,NA,0,96,0,0,0,NA,96,1007,259,04/03/2018 10:34,A template containing a practice and an experimental phase,96,no,800,1280,15.72330189,yes,Exp_10_working.osexp,C:\Users\russe\Dropbox,no,mono,no,32,no,#ffffff,no,I confirm that my participation has been explained and consent to taking part in the experiment,NA,1,yes,800,hn,droid,80,15,11,C:/Users/russe/Dropbox/Exp_10/subject-1.csv,droid,Jazzy James,3.1.7,0,11,NA,1,NA,1,1,NA,11,595,NA,899,NA,710,1327,NA,595,2,legacy,Female,1024,2,48000,-16,experiment,1,odd,droid,4391,NA,NA,72025,72624,8404,10015,NA,72027,21799,NA,NA,NA,NA,2368,NA,NA,72625,NA,9304,20471,NA,72027,Runtime for Android template,76,36265,81,0.07692,no,1280,1.66259062
93.90243902,93.90243902,19,447.6219512,447.6219512,#000000,no,1,droid,legacy,legacy,0,I confirm that my participation has been explained and consent to taking part in the experiment,relative,1,undefined,undefined,1,0,1,0,97,97,0,0,0,97,0,0,0,0,0,0,NA,0,97,0,0,0,NA,97,567,694,04/03/2018 10:34,A template containing a practice and an experimental phase,96,no,800,1280,15.72330189,yes,Exp_10_working.osexp,C:\Users\russe\Dropbox,no,mono,no,32,no,#ffffff,no,I confirm that my participation has been explained and consent to taking part in the experiment,NA,4,yes,800,nh,droid,81,15,21,C:/Users/russe/Dropbox/Exp_10/subject-1.csv,droid,Jazzy James,3.1.7,0,21,NA,1,NA,1,1,NA,21,440,NA,899,NA,710,1327,NA,440,2,legacy,Female,1024,2,48000,-16,experiment,1,odd,droid,4391,NA,NA,72788,73233,8404,10015,NA,72790,21799,NA,NA,NA,NA,2368,NA,NA,73233,NA,9304,20471,NA,72790,Runtime for Android template,77,36705,82,0.8,no,1280,-0.284330401
93.97590361,93.97590361,19,447.2168675,447.2168675,#000000,no,1,droid,legacy,legacy,0,I confirm that my participation has been explained and consent to taking part in the experiment,relative,1,undefined,undefined,1,0,1,0,98,98,0,0,0,98,0,0,0,0,0,0,NA,0,98,0,0,0,NA,98,1020,647,04/03/2018 10:34,A template containing a practice and an experimental phase,96,no,800,1280,15.72330189,yes,Exp_10_working.osexp,C:\Users\russe\Dropbox,no,mono,no,32,no,#ffffff,no,I confirm that my participation has been explained and consent to taking part in the experiment,NA,1,yes,800,hp,droid,82,15,23,C:/Users/russe/Dropbox/Exp_10/subject-1.csv,droid,Jazzy James,3.1.7,0,23,NA,1,NA,1,1,NA,23,414,NA,899,NA,710,1327,NA,414,2,legacy,Female,1024,2,48000,-16,experiment,1,odd,droid,4391,NA,NA,73374,73792,8404,10015,NA,73376,21799,NA,NA,NA,NA,2368,NA,NA,73792,NA,9304,20471,NA,73376,Runtime for Android template,78,37119,83,0.07692,no,1280,-0.610910702
94.04761905,94.04761905,19,447.6190476,447.6190476,#000000,no,1,droid,legacy,legacy,0,I confirm that my participation has been explained and consent to taking part in the experiment,relative,1,undefined,undefined,1,0,1,0,99,99,0,0,0,99,0,0,0,0,0,0,NA,0,99,0,0,0,NA,99,357,713,04/03/2018 10:34,A template containing a practice and an experimental phase,96,no,800,1280,15.72330189,yes,Exp_10_working.osexp,C:\Users\russe\Dropbox,no,mono,no,32,no,#ffffff,no,I confirm that my participation has been explained and consent to taking part in the experiment,NA,1,yes,800,pm,droid,83,15,20,C:/Users/russe/Dropbox/Exp_10/subject-1.csv,droid,Jazzy James,3.1.7,0,20,NA,1,NA,1,1,NA,20,481,NA,899,NA,710,1327,NA,481,2,legacy,Female,1024,2,48000,-16,experiment,1,odd,droid,4391,NA,NA,74035,74521,8404,10015,NA,74037,21799,NA,NA,NA,NA,2368,NA,NA,74521,NA,9304,20471,NA,74037,Runtime for Android template,79,37600,84,0.2,no,1280,0.230661611
94.11764706,94.11764706,19,447.0470588,447.0470588,#000000,no,1,droid,legacy,legacy,0,I confirm that my participation has been explained and consent to taking part in the experiment,relative,1,undefined,undefined,1,0,1,0,100,100,0,0,0,100,0,0,0,0,0,0,NA,0,100,0,0,0,NA,100,1040,308,04/03/2018 10:34,A template containing a practice and an experimental phase,96,no,800,1280,15.72330189,yes,Exp_10_working.osexp,C:\Users\russe\Dropbox,no,mono,no,32,no,#ffffff,no,I confirm that my participation has been explained and consent to taking part in the experiment,NA,1,yes,800,mh,droid,84,15,11,C:/Users/russe/Dropbox/Exp_10/subject-1.csv,droid,Jazzy James,3.1.7,0,11,NA,1,NA,1,1,NA,11,399,NA,899,NA,710,1327,NA,399,2,legacy,Female,1024,2,48000,-16,experiment,1,odd,droid,4391,NA,NA,74669,75073,8404,10015,NA,74670,21799,NA,NA,NA,NA,2368,NA,NA,75073,NA,9304,20471,NA,74671,Runtime for Android template,80,37999,85,0.11111,no,1280,-0.799322414
94.18604651,94.18604651,19,446.1976744,446.1976744,#000000,no,1,droid,legacy,legacy,0,I confirm that my participation has been explained and consent to taking part in the experiment,relative,1,undefined,undefined,1,0,1,0,101,101,0,0,0,101,0,0,0,0,0,0,NA,0,101,0,0,0,NA,101,533,530,04/03/2018 10:34,A template containing a practice and an experimental phase,96,no,800,1280,15.72330189,yes,Exp_10_working.osexp,C:\Users\russe\Dropbox,no,mono,no,32,no,#ffffff,no,I confirm that my participation has been explained and consent to taking part in the experiment,NA,2,yes,800,hj,droid,85,15,15,C:/Users/russe/Dropbox/Exp_10/subject-1.csv,droid,Jazzy James,3.1.7,0,15,NA,1,NA,1,1,NA,15,374,NA,899,NA,710,1327,NA,374,2,legacy,Female,1024,2,48000,-16,experiment,1,odd,droid,4391,NA,NA,75246,75624,8404,10015,NA,75248,21799,NA,NA,NA,NA,2368,NA,NA,75624,NA,9304,20471,NA,75248,Runtime for Android template,81,38373,86,0.15385,no,1280,-1.113341933
94.25287356,94.25287356,19,445.3103448,445.3103448,#000000,no,1,droid,legacy,legacy,0,I confirm that my participation has been explained and consent to taking part in the experiment,relative,1,undefined,undefined,1,0,1,0,102,102,0,0,0,102,0,0,0,0,0,0,NA,0,102,0,0,0,NA,102,899,387,04/03/2018 10:34,A template containing a practice and an experimental phase,96,no,800,1280,15.72330189,yes,Exp_10_working.osexp,C:\Users\russe\Dropbox,no,mono,no,32,no,#ffffff,no,I confirm that my participation has been explained and consent to taking part in the experiment,NA,1,yes,800,jh,droid,86,15,11,C:/Users/russe/Dropbox/Exp_10/subject-1.csv,droid,Jazzy James,3.1.7,0,11,NA,1,NA,1,1,NA,11,369,NA,899,NA,710,1327,NA,369,2,legacy,Female,1024,2,48000,-16,experiment,1,odd,droid,4391,NA,NA,75964,76336,8404,10015,NA,75965,21799,NA,NA,NA,NA,2368,NA,NA,76336,NA,9304,20471,NA,75965,Runtime for Android template,82,38742,87,0.125,no,1280,-1.176145837
94.31818182,94.31818182,19,445.1477273,445.1477273,#000000,no,1,droid,legacy,legacy,0,I confirm that my participation has been explained and consent to taking part in the experiment,relative,1,undefined,undefined,1,0,1,0,103,103,0,0,0,103,0,0,0,0,0,0,NA,0,103,0,0,0,NA,103,718,295,04/03/2018 10:34,A template containing a practice and an experimental phase,96,no,800,1280,15.72330189,yes,Exp_10_working.osexp,C:\Users\russe\Dropbox,no,mono,no,32,no,#ffffff,no,I confirm that my participation has been explained and consent to taking part in the experiment,NA,2,yes,800,hg,droid,87,15,10,C:/Users/russe/Dropbox/Exp_10/subject-1.csv,droid,Jazzy James,3.1.7,0,10,NA,1,NA,1,1,NA,10,431,NA,899,NA,710,1327,NA,431,2,legacy,Female,1024,2,48000,-16,experiment,1,odd,droid,4391,NA,NA,76438,76872,8404,10015,NA,76439,21799,NA,NA,NA,NA,2368,NA,NA,76872,NA,9304,20471,NA,76439,Runtime for Android template,83,39173,88,0.15385,no,1280,-0.397377428
94.38202247,94.38202247,19,444.752809,444.752809,#000000,no,1,droid,legacy,legacy,0,I confirm that my participation has been explained and consent to taking part in the experiment,relative,1,undefined,undefined,1,0,1,0,104,104,0,0,0,104,0,0,0,0,0,0,NA,0,104,0,0,0,NA,104,476,542,04/03/2018 10:34,A template containing a practice and an experimental phase,96,no,800,1280,15.72330189,yes,Exp_10_working.osexp,C:\Users\russe\Dropbox,no,mono,no,32,no,#ffffff,no,I confirm that my participation has been explained and consent to taking part in the experiment,NA,1,yes,800,gj,droid,88,15,15,C:/Users/russe/Dropbox/Exp_10/subject-1.csv,droid,Jazzy James,3.1.7,0,15,NA,1,NA,1,1,NA,15,410,NA,899,NA,710,1327,NA,410,2,legacy,Female,1024,2,48000,-16,experiment,1,odd,droid,4391,NA,NA,77370,77784,8404,10015,NA,77372,21799,NA,NA,NA,NA,2368,NA,NA,77784,NA,9304,20471,NA,77372,Runtime for Android template,84,39583,89,0.2,no,1280,-0.661153825
94.44444444,94.44444444,19,443.7777778,443.7777778,#000000,no,1,droid,legacy,legacy,0,I confirm that my participation has been explained and consent to taking part in the experiment,relative,1,undefined,undefined,1,0,1,0,105,105,0,0,0,105,0,0,0,0,0,0,NA,0,105,0,0,0,NA,105,772,662,04/03/2018 10:34,A template containing a practice and an experimental phase,96,no,800,1280,15.72330189,yes,Exp_10_working.osexp,C:\Users\russe\Dropbox,no,mono,no,32,no,#ffffff,no,I confirm that my participation has been explained and consent to taking part in the experiment,NA,2,yes,800,jo,droid,89,15,22,C:/Users/russe/Dropbox/Exp_10/subject-1.csv,droid,Jazzy James,3.1.7,0,22,NA,1,NA,1,1,NA,22,357,NA,899,NA,710,1327,NA,357,2,legacy,Female,1024,2,48000,-16,experiment,1,odd,droid,4391,NA,NA,78007,78369,8404,10015,NA,78009,21799,NA,NA,NA,NA,2368,NA,NA,78369,NA,9304,20471,NA,78009,Runtime for Android template,85,39940,90,0.25,no,1280,-1.326875206
